file,block,trial_number,trial_type,response,start_time,end_time,duration,rt_N,rt_O,prestress_start,poststress_start
31730_processed.fif,pre-stress,1,long,0,896.151978,899.440002,3.288024000000064,2.6360469999999623,0.5520019999999022,875.320007,4111.571777
31730_processed.fif,pre-stress,2,long,0,904.119995,907.528015,3.408019999999965,2.752014000000031,0.4440299999999979,875.320007,4111.571777
31730_processed.fif,pre-stress,3,long,0,912.776001,916.156006,3.3800050000000965,2.723999000000049,0.5399780000000192,875.320007,4111.571777
31730_processed.fif,pre-stress,4,long,0,920.624023,924.028015,3.4039920000000166,2.751954000000069,0.44799799999998413,875.320007,4111.571777
31730_processed.fif,pre-stress,5,long,0,927.97998,931.375977,3.3959970000000794,2.731995000000097,0.5399780000000192,875.320007,4111.571777
31730_processed.fif,pre-stress,6,long,0,935.424011,939.572021,4.148009999999999,3.4879760000000033,0.5399779999999055,875.320007,4111.571777
31730_processed.fif,pre-stress,7,long,0,943.607971,947.231995,3.624023999999963,3.060059000000024,0.5440070000000787,875.320007,4111.571777
31730_processed.fif,pre-stress,8,long,0,951.271973,954.796021,3.5240479999999934,2.856017999999949,0.5520019999999022,875.320007,4111.571777
31730_processed.fif,pre-stress,9,long,1,968.880005,991.127991,22.24798599999997,2.0759890000000496,,875.320007,4111.571777
31730_processed.fif,pre-stress,10,long,0,995.716003,998.684021,2.968018000000029,2.4160160000000133,0.5599980000000642,875.320007,4111.571777
31730_processed.fif,pre-stress,11,long,0,1002.547974,1005.312012,2.7640380000000278,2.0920409999999947,0.45202699999993,875.320007,4111.571777
31730_processed.fif,pre-stress,12,long,0,1010.564026,1013.195984,2.6319579999999405,1.9759520000000066,0.5559690000000046,875.320007,4111.571777
31730_processed.fif,pre-stress,13,long,0,1017.676025,1020.776001,3.0999759999999696,2.4279790000000503,0.44799799999998413,875.320007,4111.571777
31730_processed.fif,pre-stress,14,long,0,1025.255981,1028.219971,2.963989999999967,2.2919930000000477,0.5439460000000054,875.320007,4111.571777
31730_processed.fif,pre-stress,15,long,0,1032.712036,1035.359985,2.6479490000001533,1.9799810000001798,0.5560310000000754,875.320007,4111.571777
31730_processed.fif,pre-stress,16,long,0,1039.719971,1042.807983,3.088011999999935,2.4240720000000238,0.5600589999999102,875.320007,4111.571777
31730_processed.fif,pre-stress,17,long,0,1047.176025,1050.135986,2.959961000000021,2.299927000000025,0.5559080000000449,875.320007,4111.571777
31730_processed.fif,pre-stress,18,long,0,1054.712036,1057.687988,2.9759520000000066,2.3159180000000106,0.44396999999980835,875.320007,4111.571777
31730_processed.fif,pre-stress,19,long,0,1061.959961,1065.160034,3.200072999999975,2.5200190000000475,,875.320007,4111.571777
31730_processed.fif,pre-stress,20,long,1,1070.088013,1092.235962,22.147948999999926,1.9599610000000212,,875.320007,4111.571777
31730_processed.fif,pre-stress,21,long,0,1096.615967,1099.55603,2.940063000000009,2.2919919999999365,0.5399169999998321,875.320007,4111.571777
31730_processed.fif,pre-stress,22,long,0,1103.81604,1107.212036,3.3959959999999683,2.7359619999999722,0.44396999999980835,875.320007,4111.571777
31730_processed.fif,pre-stress,23,long,0,1111.812012,1114.660034,2.848021999999901,2.187987999999905,0.5439449999998942,875.320007,4111.571777
31730_processed.fif,pre-stress,24,long,0,1118.595947,1121.343994,2.7480470000000423,2.1800539999999273,0.5360109999999167,875.320007,4111.571777
31730_processed.fif,pre-stress,25,long,0,1125.300049,1127.932007,2.631958000000168,1.9678949999999986,0.43994099999986247,875.320007,4111.571777
31730_processed.fif,pre-stress,26,long,0,1131.540039,1134.515991,2.9759520000000066,2.307982999999922,0.45202599999993254,875.320007,4111.571777
31730_processed.fif,pre-stress,27,long,0,1138.027954,1141.004028,2.9760740000001533,2.30810600000018,0.44409200000018245,875.320007,4111.571777
31730_processed.fif,pre-stress,28,long,0,1144.511963,1147.160034,2.6480710000000727,2.0880130000000463,0.5479740000000675,875.320007,4111.571777
31730_processed.fif,pre-stress,29,long,0,1150.680054,1153.543945,2.863890999999967,2.2039790000001176,0.5600580000000264,875.320007,4111.571777
31730_processed.fif,pre-stress,30,long,0,1157.060059,1159.708008,2.6479490000001533,2.087890000000016,0.5520019999999022,875.320007,4111.571777
31730_processed.fif,pre-stress,31,long,1,1163.644043,1185.459961,21.81591800000001,1.6359860000000026,,875.320007,4111.571777
31730_processed.fif,pre-stress,32,long,0,1189.375977,1192.040039,2.664062000000058,1.9880370000000767,0.4479980000000978,875.320007,4111.571777
31730_processed.fif,pre-stress,33,short,0,1229.57605,1232.439941,2.8638910000001943,2.2039790000001176,0.5600580000000264,875.320007,4111.571777
31730_processed.fif,pre-stress,34,short,0,1236.708008,1239.355957,2.647948999999926,2.208007999999836,0.5679939999999988,875.320007,4111.571777
31730_processed.fif,pre-stress,35,short,0,1243.644043,1246.391968,2.7479249999998956,2.18396000000007,0.5479740000000675,875.320007,4111.571777
31730_processed.fif,pre-stress,36,short,0,1250.343994,1253.411987,3.0679929999998876,2.4079589999998916,0.5439449999998942,875.320007,4111.571777
31730_processed.fif,pre-stress,37,short,0,1257.036011,1259.916016,2.880004999999983,2.2080080000000635,0.44799799999987044,875.320007,4111.571777
31730_processed.fif,pre-stress,38,short,0,1263.764038,1266.631958,2.8679199999999128,2.299927000000025,0.5479740000000675,875.320007,4111.571777
31730_processed.fif,pre-stress,39,short,1,1271.567993,1278.452026,6.884033000000045,1.6440430000000106,,875.320007,4111.571777
31730_processed.fif,pre-stress,40,short,0,1282.495972,1285.147949,2.651976999999988,2.0920410000001084,0.5520020000001296,875.320007,4111.571777
31730_processed.fif,pre-stress,41,short,0,1289.199951,1291.848022,2.6480709999998453,1.9840090000000146,0.4439700000000357,875.320007,4111.571777
31730_processed.fif,pre-stress,42,short,0,1295.339966,1298.088013,2.7480470000000423,2.0880130000000463,0.4439700000000357,875.320007,4111.571777
31730_processed.fif,pre-stress,43,short,0,1302.124023,1304.748047,2.624023999999963,1.963989999999967,0.4479980000000978,875.320007,4111.571777
31730_processed.fif,pre-stress,44,short,1,1309.452026,1316.128052,6.676026000000093,1.4239509999999882,,875.320007,4111.571777
31730_processed.fif,pre-stress,45,short,0,1320.296021,1323.160034,2.8640129999998862,2.192015999999967,0.44409200000018245,875.320007,4111.571777
31730_processed.fif,pre-stress,46,short,0,1327.099976,1330.604004,3.504028000000062,2.83996500000012,0.5479730000001837,875.320007,4111.571777
31730_processed.fif,pre-stress,47,short,0,1334.988037,1338.07605,3.088012999999819,2.5239259999998467,0.5479739999998401,875.320007,4111.571777
31730_processed.fif,pre-stress,48,short,0,1342.124023,1344.880005,2.7559819999999036,2.1959229999999934,0.5520020000001296,875.320007,4111.571777
31730_processed.fif,pre-stress,49,short,0,1348.708008,1351.563965,2.8559569999999894,2.179930999999897,0.44396899999992456,875.320007,4111.571777
31730_processed.fif,pre-stress,50,short,1,1355.612061,1362.608032,6.995971000000054,1.7438959999999497,,875.320007,4111.571777
31730_processed.fif,pre-stress,51,short,0,1366.44397,1369.31604,2.872069999999894,2.212035999999898,0.4520270000000437,875.320007,4111.571777
31730_processed.fif,pre-stress,52,short,0,1374.011963,1376.667969,2.6560060000001613,2.0880130000000463,0.5560310000000754,875.320007,4111.571777
31730_processed.fif,pre-stress,53,short,0,1380.280029,1383.248047,2.968018000000029,2.3039550000000872,0.5560300000001916,875.320007,4111.571777
31730_processed.fif,pre-stress,54,short,0,1387.291992,1390.047974,2.755982000000131,2.0920410000001084,0.5560299999999643,875.320007,4111.571777
31730_processed.fif,pre-stress,55,short,0,1393.771973,1396.511963,2.7399900000000343,2.0839840000001004,0.4439700000000357,875.320007,4111.571777
31730_processed.fif,pre-stress,56,short,0,1400.44397,1403.092041,2.6480710000000727,2.0760499999998956,0.5560309999998481,875.320007,4111.571777
31730_processed.fif,pre-stress,57,short,1,1406.92395,1413.703979,6.780028999999786,1.5280759999998281,,875.320007,4111.571777
31730_processed.fif,pre-stress,58,short,0,1417.871948,1420.719971,2.848023000000012,2.192017000000078,0.5559080000000449,875.320007,4111.571777
31730_processed.fif,pre-stress,59,short,0,1424.208008,1426.963989,2.7559810000000198,2.0799560000000383,0.4479980000000978,875.320007,4111.571777
31730_processed.fif,pre-stress,60,short,0,1430.264038,1433.124023,2.8599850000000515,2.179932000000008,0.4279790000000503,875.320007,4111.571777
31730_processed.fif,pre-stress,61,short,0,1436.975952,1439.5,2.5240479999999934,1.8640139999999974,0.4439700000000357,875.320007,4111.571777
31730_processed.fif,pre-stress,62,short,0,1443.115967,1446.631958,3.5159909999999854,2.8400880000001507,0.5360110000001441,875.320007,4111.571777
31730_processed.fif,pre-stress,63,short,0,1450.332031,1453.088013,2.755982000000131,2.072022000000061,0.4360349999999471,875.320007,4111.571777
31730_processed.fif,pre-stress,64,short,1,1456.588013,1463.404053,6.81603999999993,1.6400140000000647,,875.320007,4111.571777
31730_processed.fif,pre-stress,65,short,0,1467.011963,1469.880005,2.8680420000000595,2.1760249999999814,0.5319819999999709,875.320007,4111.571777
31730_processed.fif,pre-stress,66,short,0,1473.404053,1476.255981,2.8519280000000435,2.287964000000102,0.5400389999999788,875.320007,4111.571777
31730_processed.fif,pre-stress,67,short,0,1479.884033,1482.531982,2.647948999999926,2.0799560000000383,0.5560300000001916,875.320007,4111.571777
31730_processed.fif,pre-stress,68,short,0,1486.16394,1488.920044,2.7561040000000503,2.084107000000131,0.44006400000012036,875.320007,4111.571777
31730_processed.fif,pre-stress,69,short,0,1492.972046,1495.624023,2.651976999999988,1.9759520000000066,0.4479980000000978,875.320007,4111.571777
31730_processed.fif,pre-stress,70,short,1,1499.131958,1505.907959,6.776000999999951,1.5400389999999788,,875.320007,4111.571777
31730_processed.fif,pre-stress,71,short,0,1509.515991,1512.072021,2.5560299999999643,1.9840090000000146,0.5479740000000675,875.320007,4111.571777
31730_processed.fif,pre-stress,72,short,0,1515.583984,1518.563965,2.9799809999999525,2.31603999999993,0.5560299999999643,875.320007,4111.571777
31730_processed.fif,pre-stress,73,short,0,1522.192017,1524.92395,2.7319330000000264,2.179930999999897,0.5399170000000595,875.320007,4111.571777
31730_processed.fif,post-stress,1,long,0,4132.308105,4135.076172,2.7680669999999736,2.095704000000296,0.44775400000071386,875.320007,4111.571777
31730_processed.fif,post-stress,2,long,0,4139.104004,4141.848145,2.744141000000127,2.0761720000000423,0.4521489999997357,875.320007,4111.571777
31730_processed.fif,post-stress,3,long,0,4145.36377,4148.13623,2.7724600000001374,2.1040030000003753,0.4477530000003753,875.320007,4111.571777
31730_processed.fif,post-stress,4,long,0,4151.523926,4154.160156,2.6362300000000687,2.1918940000005023,0.543945000000349,875.320007,4111.571777
31730_processed.fif,post-stress,5,long,0,4158.240234,4160.996094,2.7558600000002116,2.1958009999998467,0.5478509999993548,875.320007,4111.571777
31730_processed.fif,post-stress,6,long,0,4164.832031,4167.459961,2.627929999999651,1.972168000000238,0.5444330000000264,875.320007,4111.571777
31730_processed.fif,post-stress,7,long,1,4173.687988,4195.532227,21.844239000000016,1.5361330000005182,,875.320007,4111.571777
31730_processed.fif,post-stress,8,long,0,4199.472168,4201.888184,2.416016000000127,1.9799800000000687,0.556152000000111,875.320007,4111.571777
31730_processed.fif,post-stress,9,long,0,4205.523926,4208.184082,2.6601559999999154,1.9760740000001533,0.5517579999996087,875.320007,4111.571777
31730_processed.fif,post-stress,10,long,0,4211.799805,4214.551758,2.7519529999999577,2.187988000000587,0.5395509999998467,875.320007,4111.571777
31730_processed.fif,post-stress,11,long,0,4218.492188,4221.131836,2.639647999999397,1.9755850000001374,0.5556640000004336,875.320007,4111.571777
31730_processed.fif,post-stress,12,long,0,4224.52002,4227.164062,2.6440419999998994,1.972168000000238,0.43212899999980436,875.320007,4111.571777
31730_processed.fif,post-stress,13,long,0,4231.104004,4233.86377,2.759766000000127,2.1918940000005023,0.5600580000000264,875.320007,4111.571777
31730_processed.fif,post-stress,14,long,1,4237.916016,4259.39209,21.476074000000153,1.4199220000000423,,875.320007,4111.571777
31730_processed.fif,post-stress,15,long,0,4263.12793,4265.759766,2.631836000000476,2.0922850000006292,0.5561530000004495,875.320007,4111.571777
31730_processed.fif,post-stress,16,long,0,4269.587891,4272.339844,2.7519529999999577,2.0878899999997884,0.5556639999995241,875.320007,4111.571777
31730_processed.fif,post-stress,17,long,0,4275.839844,4278.379883,2.540038999999524,1.872070000000349,0.5517580000005182,875.320007,4111.571777
31730_processed.fif,post-stress,18,long,0,4282.21582,4284.859863,2.6440429999993285,2.083984999999302,0.5556639999995241,875.320007,4111.571777
31730_processed.fif,post-stress,19,long,0,4288.912109,4291.667969,2.7558600000002116,2.0839850000002116,0.4443360000004759,875.320007,4111.571777
31730_processed.fif,post-stress,20,long,0,4295.724121,4298.37207,2.6479490000001533,1.9760740000001533,0.440429000000222,875.320007,4111.571777
31730_processed.fif,post-stress,21,long,1,4302.640137,4324.37207,21.731933000000026,1.4316399999997884,,875.320007,4111.571777
31730_processed.fif,post-stress,22,long,0,4328.315918,4330.963867,2.6479490000001533,2.087891000000127,0.5517580000005182,875.320007,4111.571777
31730_processed.fif,post-stress,23,long,0,4334.916016,4337.439941,2.523924999999508,1.9677730000003066,0.5478510000002643,875.320007,4111.571777
31730_processed.fif,post-stress,24,long,0,4341.051758,4343.700195,2.6484370000007402,1.972168000000238,0.55615299999954,875.320007,4111.571777
31730_processed.fif,post-stress,25,long,0,4347.220215,4349.86377,2.643554999999651,1.9638669999994818,0.43212899999980436,875.320007,4111.571777
31730_processed.fif,post-stress,26,long,0,4353.687988,4356.428223,2.7402350000002116,2.0800779999999577,0.5478509999993548,875.320007,4111.571777
31730_processed.fif,post-stress,27,long,0,4360.259766,4363.140137,2.8803710000001956,2.1923820000001797,0.44824200000039127,875.320007,4111.571777
31730_processed.fif,post-stress,28,long,1,4366.543945,4388.596191,22.052245999999286,1.868163999999524,,875.320007,4111.571777
31730_processed.fif,post-stress,29,long,0,4392.312012,4394.948242,2.6362300000000687,2.0761720000000423,0.5439460000006875,875.320007,4111.571777
31730_processed.fif,post-stress,30,long,0,4398.467773,4401.012207,2.5444339999994554,1.872070999999778,0.43994199999997363,875.320007,4111.571777
31730_processed.fif,post-stress,31,long,0,4404.516113,4407.37207,2.8559570000006715,2.2919920000003913,0.543945000000349,875.320007,4111.571777
31730_processed.fif,post-stress,32,long,0,4410.875977,4413.744141,2.8681640000004336,2.312010999999984,0.5639649999993708,875.320007,4111.571777
31730_processed.fif,post-stress,33,long,0,4417.060059,4419.724121,2.6640619999998307,1.9877929999993285,0.5517579999996087,875.320007,4111.571777
31730_processed.fif,post-stress,34,long,0,4423.116211,4425.76416,2.6479490000001533,1.9799800000000687,0.5522459999992861,875.320007,4111.571777
31730_processed.fif,post-stress,35,short,0,4461.875977,4464.848145,2.972168000000238,2.3041990000001533,0.5522460000001956,875.320007,4111.571777
31730_processed.fif,post-stress,36,short,0,4468.779785,4471.532227,2.7524419999999736,2.0761720000000423,0.5400389999995241,875.320007,4111.571777
31730_processed.fif,post-stress,37,short,1,4476.13623,4482.903809,6.767579000000296,1.531739000000016,,875.320007,4111.571777
31730_processed.fif,post-stress,38,short,0,4486.408203,4489.060059,2.651856000000407,2.0917970000000423,0.556152000000111,875.320007,4111.571777
31730_processed.fif,post-stress,39,short,0,4493.21582,4495.948242,2.7324220000000423,2.068359999999302,0.5400389999995241,875.320007,4111.571777
31730_processed.fif,post-stress,40,short,0,4499.779785,4502.439941,2.6601559999999154,2.100097999999889,0.5556639999995241,875.320007,4111.571777
31730_processed.fif,post-stress,41,short,0,4506.040039,4508.916016,2.8759769999996934,2.2001949999994395,0.5600580000000264,875.320007,4111.571777
31730_processed.fif,post-stress,42,short,0,4512.416016,4515.28418,2.868163999999524,2.1879879999996774,0.5478519999996934,875.320007,4111.571777
31730_processed.fif,post-stress,43,short,1,4519.220215,4525.996094,6.775878999999804,1.527831999999762,,875.320007,4111.571777
31730_processed.fif,post-stress,44,short,0,4529.5,4532.023926,2.5239259999998467,2.0800779999999577,0.5478510000002643,875.320007,4111.571777
31730_processed.fif,post-stress,45,short,0,4535.647949,4538.503906,2.855956999999762,2.184081999999762,0.5400389999995241,875.320007,4111.571777
31730_processed.fif,post-stress,46,short,0,4542.012207,4544.655762,2.6435550000005605,1.975586000000476,0.5478520000006029,875.320007,4111.571777
31730_processed.fif,post-stress,47,short,0,4548.151855,4551.012207,2.8603519999996934,2.1923829999996087,0.45214799999939714,875.320007,4111.571777
31730_processed.fif,post-stress,48,short,1,4554.932129,4561.711914,6.779785000000629,1.531738000000587,,875.320007,4111.571777
31730_processed.fif,post-stress,49,short,0,4565.211914,4567.852051,2.640136999999413,1.9799809999994977,0.5517579999996087,875.320007,4111.571777
31730_processed.fif,post-stress,50,short,0,4571.795898,4574.671875,2.8759769999996934,2.1962899999998626,0.44043000000056054,875.320007,4111.571777
31730_processed.fif,post-stress,51,short,0,4578.180176,4580.952148,2.77197200000046,2.1040039999998044,0.4521489999997357,875.320007,4111.571777
31730_processed.fif,post-stress,52,short,0,4585.0,4587.943848,2.943847999999889,2.284179999999651,0.5400389999995241,875.320007,4111.571777
31730_processed.fif,post-stress,53,short,0,4591.547852,4594.279785,2.7319330000000264,2.0800779999999577,0.5478519999996934,875.320007,4111.571777
31730_processed.fif,post-stress,54,short,1,4598.220215,4605.348145,7.127929999999651,1.755858999999873,,875.320007,4111.571777
31730_processed.fif,post-stress,55,short,0,4608.859863,4611.728027,2.8681640000004336,2.2080080000005182,0.5600590000003649,875.320007,4111.571777
31730_processed.fif,post-stress,56,short,0,4615.21582,4617.956055,2.740234999999302,2.0722659999992175,0.5361329999996087,875.320007,4111.571777
31730_processed.fif,post-stress,57,short,0,4621.443848,4624.304199,2.8603510000002643,2.1879879999996774,0.5439449999994395,875.320007,4111.571777
31730_processed.fif,post-stress,58,short,0,4627.78418,4630.383789,2.5996090000007825,1.9799800000000687,0.45214799999939714,875.320007,4111.571777
31730_processed.fif,post-stress,59,short,1,4633.748047,4640.640137,6.89209000000028,1.6401370000003226,,875.320007,4111.571777
31730_processed.fif,post-stress,60,short,0,4644.140137,4646.883789,2.743652000000111,2.083983999999873,0.556152000000111,875.320007,4111.571777
31730_processed.fif,post-stress,61,short,0,4650.936035,4653.691895,2.7558600000002116,2.087891000000127,0.4521489999997357,875.320007,4111.571777
31730_processed.fif,post-stress,62,short,0,4657.751953,4660.5,2.7480470000000423,2.087891000000127,0.5556640000004336,875.320007,4111.571777
31730_processed.fif,post-stress,63,short,0,4664.452148,4667.655762,3.203614000000016,2.6318359999995664,0.5517570000001797,875.320007,4111.571777
31730_processed.fif,post-stress,64,short,0,4671.591797,4674.355957,2.7641599999997197,2.0922849999997197,0.556152000000111,875.320007,4111.571777
31730_processed.fif,post-stress,65,short,0,4678.403809,4681.26416,2.860350999999355,2.196288999999524,0.55615299999954,875.320007,4111.571777
31730_processed.fif,post-stress,66,short,1,4684.875977,4691.76416,6.888183000000026,1.640135999999984,,875.320007,4111.571777
31730_processed.fif,post-stress,67,short,0,4695.37207,4698.667969,3.2958989999997357,2.6357419999994818,0.5595699999994395,875.320007,4111.571777
31730_processed.fif,post-stress,68,short,0,4702.815918,4705.563965,2.7480470000000423,2.096190999999635,0.5600580000000264,875.320007,4111.571777
31730_processed.fif,post-stress,69,short,0,4709.060059,4711.808105,2.748045999999704,2.083983999999873,0.5600590000003649,875.320007,4111.571777
31730_processed.fif,post-stress,70,short,0,4715.304199,4718.164062,2.8598629999996774,2.199706999999762,0.5517579999996087,875.320007,4111.571777
31730_processed.fif,post-stress,71,short,0,4721.788086,4724.432129,2.644043000000238,2.080078000000867,0.5400390000004336,875.320007,4111.571777
31730_processed.fif,post-stress,72,short,0,4728.040039,4730.883789,2.84375,2.1918949999999313,0.5561530000004495,875.320007,4111.571777
31730_processed.fif,post-stress,73,short,1,4734.379883,4741.248047,6.868164000000434,1.627929000000222,,875.320007,4111.571777
31730_processed.fif,post-stress,74,short,0,4744.748047,4747.600098,2.8520509999998467,2.191893999999593,0.5478509999993548,875.320007,4111.571777
31730_processed.fif,post-stress,75,short,0,4751.10791,4753.868164,2.760254000000714,2.0839850000002116,0.5478519999996934,875.320007,4111.571777
43000_processed.fif,pre-stress,1,short,0,863.40802,865.632019,2.223999000000049,1.5520020000000159,0.5599979999999505,843.960022,3853.231934
43000_processed.fif,pre-stress,2,short,0,869.244019,872.083984,2.8399650000000065,2.17999199999997,0.548033999999916,843.960022,3853.231934
43000_processed.fif,pre-stress,3,short,0,876.348022,878.984009,2.635987,1.963989999999967,0.4440309999999954,843.960022,3853.231934
43000_processed.fif,pre-stress,4,short,0,882.911987,885.664001,2.752014000000031,2.0880130000000463,0.5560299999999643,843.960022,3853.231934
43000_processed.fif,pre-stress,5,short,0,889.723999,892.783997,3.0599979999999505,2.408019999999965,0.5440059999999676,843.960022,3853.231934
43000_processed.fif,pre-stress,6,short,0,896.823975,899.780029,2.9560539999999946,2.283996000000002,0.5399780000000192,843.960022,3853.231934
43000_processed.fif,pre-stress,7,short,0,903.820007,906.812012,2.992004999999949,2.320007999999916,0.5599979999999505,843.960022,3853.231934
43000_processed.fif,pre-stress,8,short,1,916.291992,922.632019,6.340026999999964,1.0960079999999834,,843.960022,3853.231934
43000_processed.fif,pre-stress,9,short,0,927.231995,929.968018,2.7360230000000456,2.0720210000000634,0.5360110000000304,843.960022,3853.231934
43000_processed.fif,pre-stress,10,short,0,934.124023,936.859985,2.735962000000086,2.0799560000000383,0.5479729999999563,843.960022,3853.231934
43000_processed.fif,pre-stress,11,short,0,940.903992,943.968018,3.0640260000000126,2.3959959999999683,0.5399780000000192,843.960022,3853.231934
43000_processed.fif,pre-stress,12,short,0,948.023987,950.875977,2.8519900000000007,2.17999199999997,0.4400020000000495,843.960022,3853.231934
43000_processed.fif,pre-stress,13,short,0,954.927979,957.66803,2.740050999999994,1.97204499999998,0.44799799999998413,843.960022,3853.231934
43000_processed.fif,pre-stress,14,short,1,961.612,968.504028,6.892027999999982,1.6480099999999993,,843.960022,3853.231934
43000_processed.fif,pre-stress,15,short,0,972.528015,975.164001,2.6359860000000026,2.0679930000000013,0.5319819999999709,843.960022,3853.231934
43000_processed.fif,pre-stress,16,short,0,979.140015,982.0,2.8599850000000515,2.200012000000015,0.5640260000000126,843.960022,3853.231934
43000_processed.fif,pre-stress,17,short,0,985.924011,988.780029,2.856018000000063,2.192017000000078,0.440003000000047,843.960022,3853.231934
43000_processed.fif,pre-stress,18,short,0,992.695984,995.452026,2.756042000000093,2.1960450000000264,0.5520020000000159,843.960022,3853.231934
43000_processed.fif,pre-stress,19,short,0,999.171997,1002.492004,3.3200069999999187,2.6400149999999485,0.5640260000000126,843.960022,3853.231934
43000_processed.fif,pre-stress,20,short,0,1006.44397,1009.296021,2.8520509999999604,2.080016999999998,0.4439700000000357,843.960022,3853.231934
43000_processed.fif,pre-stress,21,short,0,1012.679993,1017.072021,4.392027999999982,3.8240349999999808,0.548033999999916,843.960022,3853.231934
43000_processed.fif,pre-stress,22,short,1,1020.692017,1027.703979,7.011961999999926,1.7559810000000198,,843.960022,3853.231934
43000_processed.fif,pre-stress,23,short,0,1031.212036,1033.871948,2.6599120000000767,2.099976000000197,0.5600590000001375,843.960022,3853.231934
43000_processed.fif,pre-stress,24,short,0,1037.791992,1040.66394,2.871947999999975,2.3039550000000872,0.5479729999999563,843.960022,3853.231934
43000_processed.fif,pre-stress,25,short,0,1044.599976,1047.219971,2.619995000000017,1.968016999999918,0.44799799999987044,843.960022,3853.231934
43000_processed.fif,pre-stress,26,short,0,1050.719971,1053.475952,2.7559810000000198,2.0839840000001004,0.45593300000018644,843.960022,3853.231934
43000_processed.fif,pre-stress,27,short,0,1056.975952,1059.612061,2.636109000000033,2.072022000000061,0.5439460000000054,843.960022,3853.231934
43000_processed.fif,pre-stress,28,short,0,1063.112061,1065.748047,2.6359860000000026,1.9759520000000066,0.5520020000001296,843.960022,3853.231934
43000_processed.fif,pre-stress,29,short,0,1069.147949,1071.767944,2.619995000000017,2.067993000000115,0.5399170000000595,843.960022,3853.231934
43000_processed.fif,pre-stress,30,short,1,1075.703979,1082.592041,6.888062000000218,1.5280770000001667,,843.960022,3853.231934
43000_processed.fif,pre-stress,31,short,0,1086.083984,1088.608032,2.5240479999999934,1.963989999999967,0.5360110000001441,843.960022,3853.231934
43000_processed.fif,pre-stress,32,short,0,1092.212036,1094.771973,2.559936999999991,1.991942999999992,0.43994099999986247,843.960022,3853.231934
43000_processed.fif,pre-stress,33,short,0,1098.599976,1101.332031,2.7320549999999457,2.088011999999935,0.5520019999999022,843.960022,3853.231934
43000_processed.fif,pre-stress,34,short,0,1105.043945,1107.708008,2.6640630000001693,2.1040040000000317,0.5639649999998255,843.960022,3853.231934
43000_processed.fif,pre-stress,35,short,0,1111.307983,1114.475952,3.1679690000000846,2.508057000000008,0.5400389999999788,843.960022,3853.231934
43000_processed.fif,pre-stress,36,short,0,1117.988037,1121.05603,3.0679929999998876,2.4079589999998916,0.5439449999998942,843.960022,3853.231934
43000_processed.fif,pre-stress,37,short,1,1124.436035,1131.332031,6.895995999999968,1.6479490000001533,,843.960022,3853.231934
43000_processed.fif,pre-stress,38,short,0,1134.832031,1137.567993,2.7359619999999722,2.0759279999999762,0.4359129999998004,843.960022,3853.231934
43000_processed.fif,pre-stress,39,short,0,1141.060059,1143.807983,2.747924000000012,2.0799560000000383,0.4439700000000357,843.960022,3853.231934
43000_processed.fif,pre-stress,40,short,0,1147.755981,1150.511963,2.7559819999999036,2.200074000000086,0.5560310000000754,843.960022,3853.231934
43000_processed.fif,pre-stress,41,short,0,1154.0,1156.723999,2.723999000000049,2.0720209999999497,0.5400389999999788,843.960022,3853.231934
43000_processed.fif,pre-stress,42,short,0,1160.232056,1163.079956,2.8478999999999814,2.187987999999905,0.5520019999999022,843.960022,3853.231934
43000_processed.fif,pre-stress,43,long,0,1199.083984,1201.83606,2.752075999999988,2.092040999999881,0.5520019999999022,843.960022,3853.231934
43000_processed.fif,pre-stress,44,long,0,1205.871948,1208.612061,2.740113000000065,2.0920410000001084,0.559936000000107,843.960022,3853.231934
43000_processed.fif,pre-stress,45,long,0,1212.196045,1214.920044,2.723999000000049,2.179932000000008,0.6439209999998639,843.960022,3853.231934
43000_processed.fif,pre-stress,46,long,0,1218.432007,1221.192017,2.7600099999999657,2.092040999999881,0.4479980000000978,843.960022,3853.231934
43000_processed.fif,pre-stress,47,long,0,1224.819946,1229.180054,4.360107999999855,3.7041019999999207,0.5321050000000014,843.960022,3853.231934
43000_processed.fif,pre-stress,48,long,0,1232.680054,1235.543945,2.863890999999967,2.1918940000000475,0.5479729999999563,843.960022,3853.231934
43000_processed.fif,pre-stress,49,long,1,1239.02002,1261.07605,22.056029999999964,1.7519529999999577,,843.960022,3853.231934
43000_processed.fif,pre-stress,50,long,0,1264.572021,1267.33606,2.764039000000139,2.1999519999999393,0.5639649999998255,843.960022,3853.231934
43000_processed.fif,pre-stress,51,long,0,1271.484009,1274.55603,3.0720209999999497,2.4079589999998916,0.5479739999998401,843.960022,3853.231934
43000_processed.fif,pre-stress,52,long,0,1278.267944,1281.115967,2.848023000000012,2.192017000000078,0.5520020000001296,843.960022,3853.231934
43000_processed.fif,pre-stress,53,long,0,1285.05603,1287.800049,2.7440189999999802,2.0919189999999617,0.5559079999998175,843.960022,3853.231934
43000_processed.fif,pre-stress,54,long,0,1291.735962,1294.47998,2.7440180000000964,2.0800779999999577,0.5440670000000409,843.960022,3853.231934
43000_processed.fif,pre-stress,55,long,0,1298.416016,1301.271973,2.8559569999999894,2.2960199999999986,0.5480959999999868,843.960022,3853.231934
43000_processed.fif,pre-stress,56,long,0,1304.991943,1307.855957,2.8640139999999974,2.29602100000011,0.5559080000000449,843.960022,3853.231934
43000_processed.fif,pre-stress,57,long,0,1311.472046,1314.33606,2.8640139999999974,2.199950999999828,0.5599359999998796,843.960022,3853.231934
43000_processed.fif,pre-stress,58,long,0,1318.495972,1321.144043,2.6480710000000727,2.0920410000001084,0.5560310000000754,843.960022,3853.231934
43000_processed.fif,pre-stress,59,long,0,1325.303955,1328.144043,2.8400879999999233,2.1920169999998507,0.43994199999997363,843.960022,3853.231934
43000_processed.fif,pre-stress,60,long,0,1331.640015,1334.708008,3.067993000000115,2.416015000000016,0.5479729999999563,843.960022,3853.231934
43000_processed.fif,pre-stress,61,long,0,1338.640015,1341.280029,2.6400140000000647,1.9799800000000687,0.559936000000107,843.960022,3853.231934
43000_processed.fif,pre-stress,62,long,0,1345.212036,1348.067993,2.8559569999999894,2.1999510000000555,0.5520019999999022,843.960022,3853.231934
43000_processed.fif,pre-stress,63,long,1,1351.567993,1373.26001,21.692017000000078,1.416016000000127,,843.960022,3853.231934
43000_processed.fif,pre-stress,64,long,0,1376.767944,1379.531982,2.7640380000000278,2.2160650000000714,0.5639650000000529,843.960022,3853.231934
43000_processed.fif,pre-stress,65,long,0,1383.472046,1386.232056,2.7600099999999657,2.0959469999997964,0.44396999999980835,843.960022,3853.231934
43000_processed.fif,pre-stress,66,long,0,1390.180054,1392.936035,2.7559810000000198,2.0839840000001004,0.5600590000001375,843.960022,3853.231934
43000_processed.fif,pre-stress,67,long,0,1396.66394,1399.515991,2.852051000000074,2.1881110000001627,0.4479980000000978,843.960022,3853.231934
43000_processed.fif,pre-stress,68,long,0,1403.255981,1406.024048,2.7680669999999736,2.092040999999881,0.45202599999993254,843.960022,3853.231934
43000_processed.fif,pre-stress,69,long,0,1409.956055,1412.692017,2.7359619999999722,2.079955999999811,0.5520019999999022,843.960022,3853.231934
43000_processed.fif,pre-stress,70,long,0,1416.524048,1419.355957,2.831908999999996,2.187987999999905,0.5520019999999022,843.960022,3853.231934
43000_processed.fif,pre-stress,71,long,0,1423.715942,1426.563965,2.848023000000012,2.0880130000000463,0.5479740000000675,843.960022,3853.231934
43000_processed.fif,pre-stress,72,long,0,1430.491943,1433.475952,2.9840090000000146,2.3000489999999445,0.5520019999999022,843.960022,3853.231934
43000_processed.fif,pre-stress,73,long,0,1437.411987,1440.05603,2.6440430000000106,2.076050000000123,0.5440670000000409,843.960022,3853.231934
43000_processed.fif,pre-stress,74,long,0,1444.631958,1449.015991,4.384033000000045,3.728027000000111,0.559936000000107,843.960022,3853.231934
43000_processed.fif,pre-stress,75,long,0,1452.947998,1455.699951,2.7519529999999577,2.083983999999873,0.43994099999986247,843.960022,3853.231934
43000_processed.fif,pre-stress,76,long,0,1459.848022,1462.47998,2.631958000000168,1.9680180000000291,0.4440919999999551,843.960022,3853.231934
43000_processed.fif,pre-stress,77,long,0,1466.187988,1468.936035,2.7480470000000423,2.072022000000061,0.5440679999999247,843.960022,3853.231934
43000_processed.fif,pre-stress,78,long,0,1473.088013,1475.73999,2.651976999999988,1.9840079999999034,0.5639639999999417,843.960022,3853.231934
43000_processed.fif,pre-stress,79,long,0,1479.343994,1482.212036,2.868041999999832,2.2039800000000014,0.5599369999999908,843.960022,3853.231934
43000_processed.fif,pre-stress,80,long,0,1486.484009,1489.468018,2.9840090000000146,2.3199460000000727,0.4479980000000978,843.960022,3853.231934
43000_processed.fif,pre-stress,81,long,0,1492.968018,1495.719971,2.7519529999999577,2.18396000000007,0.5399170000000595,843.960022,3853.231934
43000_processed.fif,post-stress,1,long,0,3871.427979,3873.535889,2.1079100000001745,1.4279780000001665,0.4360350000001745,843.960022,3853.231934
43000_processed.fif,post-stress,2,long,0,3877.47998,3880.231934,2.7519539999998415,2.083984999999757,0.5520019999999022,843.960022,3853.231934
43000_processed.fif,post-stress,3,long,0,3883.947998,3886.600098,2.652099999999791,2.092040999999881,0.5600589999999102,843.960022,3853.231934
43000_processed.fif,post-stress,4,long,0,3890.10791,3892.87207,2.7641599999997197,2.1960449999996854,0.5559079999998175,843.960022,3853.231934
43000_processed.fif,post-stress,5,long,0,3896.491943,3899.100098,2.608154999999897,1.9680180000000291,0.5400389999999788,843.960022,3853.231934
43000_processed.fif,post-stress,6,long,0,3902.491943,3905.028076,2.5361330000000635,2.0881349999999657,0.556152000000111,843.960022,3853.231934
43000_processed.fif,post-stress,7,long,0,3908.62793,3911.491943,2.8640129999998862,2.1960449999996854,0.5520019999999022,843.960022,3853.231934
43000_processed.fif,post-stress,8,long,0,3914.783936,3917.76001,2.9760740000001533,2.312010999999984,0.44799799999964307,843.960022,3853.231934
43000_processed.fif,post-stress,9,long,1,3921.147949,3943.508057,22.360107999999855,2.0800779999999577,,843.960022,3853.231934
43000_processed.fif,post-stress,10,long,0,3947.0,3949.624023,2.624022999999852,1.9599610000000212,0.443847999999889,843.960022,3853.231934
43000_processed.fif,post-stress,11,long,0,3953.13208,3955.664062,2.531981999999971,1.9719239999999445,0.5439449999998942,843.960022,3853.231934
43000_processed.fif,post-stress,12,long,0,3959.156006,3962.0,2.8439939999998387,2.0800779999999577,0.4479980000000978,843.960022,3853.231934
43000_processed.fif,post-stress,13,long,0,3965.312012,3968.936035,3.6240230000003066,3.0600580000000264,0.548095000000103,843.960022,3853.231934
43000_processed.fif,post-stress,14,long,0,3972.540039,3975.184082,2.644043000000238,2.083983999999873,0.5480949999996483,843.960022,3853.231934
43000_processed.fif,post-stress,15,long,0,3978.696045,3981.971924,3.2758789999998044,2.619872999999643,0.5439449999998942,843.960022,3853.231934
43000_processed.fif,post-stress,16,long,0,3985.355957,3988.095947,2.7399899999995796,2.1879879999996774,0.5439449999998942,843.960022,3853.231934
43000_processed.fif,post-stress,17,long,0,3991.612061,3994.156006,2.543945000000349,1.9799800000000687,0.5561519999996563,843.960022,3853.231934
43000_processed.fif,post-stress,18,long,0,3997.76001,4000.387939,2.627929000000222,1.983885999999984,0.5598139999997329,843.960022,3853.231934
43000_processed.fif,post-stress,19,long,0,4003.775879,4006.540039,2.7641600000001745,2.0720210000004045,0.5397950000001401,843.960022,3853.231934
43000_processed.fif,post-stress,20,long,0,4009.931885,4012.568115,2.6362300000000687,1.9680170000001453,0.4479980000000978,843.960022,3853.231934
43000_processed.fif,post-stress,21,long,0,4015.971924,4018.60791,2.63598600000023,2.0681150000000343,0.5400389999999788,843.960022,3853.231934
43000_processed.fif,post-stress,22,long,0,4022.104004,4024.736084,2.6320800000003146,1.9760740000001533,0.5480959999999868,843.960022,3853.231934
43000_processed.fif,post-stress,23,long,0,4028.572021,4031.224121,2.652100000000246,1.9799809999999525,0.43994100000008984,843.960022,3853.231934
43000_processed.fif,post-stress,24,long,1,4035.600098,4056.768066,21.1679680000002,1.0998530000001665,,843.960022,3853.231934
43000_processed.fif,post-stress,25,long,0,4061.028076,4063.639893,2.6118169999999736,1.9599610000000212,0.5439449999998942,843.960022,3853.231934
43000_processed.fif,post-stress,26,long,0,4067.112061,4069.8479,2.7358390000003965,2.07592700000032,0.5400389999999788,843.960022,3853.231934
43000_processed.fif,post-stress,27,long,0,4073.228027,4076.196045,2.968018000000029,2.3078620000001138,0.5520020000003569,843.960022,3853.231934
43000_processed.fif,post-stress,28,long,0,4079.696045,4082.327881,2.631836000000021,1.9760739999996986,0.44799799999964307,843.960022,3853.231934
43000_processed.fif,post-stress,29,long,0,4085.835938,4088.444092,2.608154000000013,1.9641109999997752,0.5439449999998942,843.960022,3853.231934
43000_processed.fif,post-stress,30,long,0,4091.820068,4094.572021,2.7519529999999577,2.179932000000008,0.5358890000002248,843.960022,3853.231934
43000_processed.fif,post-stress,31,long,0,4098.295898,4101.060059,2.7641610000000583,2.100097999999889,0.44775399999980436,843.960022,3853.231934
43000_processed.fif,post-stress,32,long,0,4104.788086,4107.419922,2.631836000000476,1.9760740000001533,0.4482419999994818,843.960022,3853.231934
43000_processed.fif,post-stress,33,long,0,4111.151855,4113.687988,2.5361329999996087,1.9760749999995824,0.543945999999778,843.960022,3853.231934
43000_processed.fif,post-stress,34,long,0,4117.512207,4120.248047,2.7358400000002803,2.075684000000365,0.5361330000005182,843.960022,3853.231934
43000_processed.fif,post-stress,35,long,0,4123.972168,4126.824219,2.8520509999998467,2.1835940000000846,0.5478520000006029,843.960022,3853.231934
43000_processed.fif,post-stress,36,long,0,4130.224121,4132.983887,2.759766000000127,2.1958009999998467,0.5517579999996087,843.960022,3853.231934
43000_processed.fif,post-stress,37,long,1,4136.596191,4158.523926,21.92773500000021,1.7558600000002116,,843.960022,3853.231934
43000_processed.fif,post-stress,38,long,0,4162.12793,4164.899902,2.77197200000046,2.2119140000004336,0.5639650000002803,843.960022,3853.231934
43000_processed.fif,post-stress,39,long,0,4168.52002,4171.259766,2.7397460000001956,2.076170999999704,0.43603499999971973,843.960022,3853.231934
43000_processed.fif,post-stress,40,short,0,4207.02002,4209.671875,2.6518550000000687,2.0878899999997884,0.5517579999996087,843.960022,3853.231934
43000_processed.fif,post-stress,41,short,0,4213.180176,4216.37207,3.1918940000005023,2.5239259999998467,0.4443359999995664,843.960022,3853.231934
43000_processed.fif,post-stress,42,short,0,4219.875977,4222.631836,2.755858999999873,2.087890000000698,0.4360350000006292,843.960022,3853.231934
43000_processed.fif,post-stress,43,short,0,4226.12793,4228.87207,2.744140000000698,2.0839840000007825,0.5478520000006029,843.960022,3853.231934
43000_processed.fif,post-stress,44,short,0,4232.255859,4235.111816,2.855956999999762,2.1923830000005182,0.5483400000002803,843.960022,3853.231934
43000_processed.fif,post-stress,45,short,0,4238.60791,4241.248047,2.6401370000003226,1.972168000000238,0.5522460000001956,843.960022,3853.231934
43000_processed.fif,post-stress,46,short,1,4245.184082,4252.060059,6.875977000000603,1.6279300000005605,,843.960022,3853.231934
43000_processed.fif,post-stress,47,short,0,4255.76416,4258.600098,2.8359380000001693,2.1840820000006715,0.5400390000004336,843.960022,3853.231934
43000_processed.fif,post-stress,48,short,0,4262.091797,4264.73584,2.644043000000238,1.9682620000003226,0.43994199999997363,843.960022,3853.231934
43000_processed.fif,post-stress,49,short,0,4268.240234,4271.100098,2.859864000000016,2.1958009999998467,0.5522459999992861,843.960022,3853.231934
43000_processed.fif,post-stress,50,short,0,4274.611816,4277.348145,2.736329000000296,2.0761720000000423,0.4399409999996351,843.960022,3853.231934
43000_processed.fif,post-stress,51,short,0,4281.060059,4283.587891,2.527831999999762,1.9760739999992438,0.5483399999993708,843.960022,3853.231934
43000_processed.fif,post-stress,52,short,0,4287.211914,4289.859863,2.647948999999244,1.9882809999999154,0.5600580000000264,843.960022,3853.231934
43000_processed.fif,post-stress,53,short,0,4293.576172,4296.436035,2.8598629999996774,2.199706999999762,0.5517579999996087,843.960022,3853.231934
43000_processed.fif,post-stress,54,short,0,4299.936035,4302.899902,2.9638670000003913,2.3041990000001533,0.5522460000001956,843.960022,3853.231934
43000_processed.fif,post-stress,55,short,0,4306.403809,4309.12793,2.724120999999286,2.0800779999999577,0.5517580000005182,843.960022,3853.231934
43000_processed.fif,post-stress,56,short,1,4312.640137,4319.416016,6.775878999999804,1.5317379999996774,,843.960022,3853.231934
43000_processed.fif,post-stress,57,short,0,4322.923828,4325.779785,2.855956999999762,2.1879879999996774,0.5439449999994395,843.960022,3853.231934
43000_processed.fif,post-stress,58,short,0,4329.175781,4331.835938,2.660157000000254,2.0961919999999736,0.55615299999954,843.960022,3853.231934
43000_processed.fif,post-stress,59,short,0,4335.344238,4338.104004,2.759766000000127,2.0917970000000423,0.5600580000000264,843.960022,3853.231934
43000_processed.fif,post-stress,60,short,0,4341.928223,4344.580078,2.6518550000000687,1.983885999999984,0.556152000000111,843.960022,3853.231934
43000_processed.fif,post-stress,61,short,0,4348.096191,4350.740234,2.644043000000238,1.9677740000006452,0.443847999999889,843.960022,3853.231934
43000_processed.fif,post-stress,62,short,0,4354.571777,4357.423828,2.8520509999998467,2.196288999999524,0.5522459999992861,843.960022,3853.231934
43000_processed.fif,post-stress,63,short,0,4360.932129,4363.684082,2.7519529999999577,2.1918940000005023,0.556152000000111,843.960022,3853.231934
43000_processed.fif,post-stress,64,short,0,4367.403809,4370.056152,2.652342999999746,2.0883789999998044,0.5522470000005342,843.960022,3853.231934
43000_processed.fif,post-stress,65,short,0,4374.204102,4376.839844,2.6357420000003913,1.9799800000000687,0.556152000000111,843.960022,3853.231934
43000_processed.fif,post-stress,66,short,0,4380.667969,4383.432129,2.7641599999997197,2.1040039999998044,0.4521489999997357,843.960022,3853.231934
43000_processed.fif,post-stress,67,short,1,4387.023926,4393.71582,6.691894000000502,1.5322260000002643,,843.960022,3853.231934
43000_processed.fif,post-stress,68,short,0,4397.655762,4400.308105,2.652342999999746,1.980467999999746,0.5522460000001956,843.960022,3853.231934
43000_processed.fif,post-stress,69,short,0,4403.812012,4406.456055,2.6440429999993285,1.9721679999993285,0.543945999999778,843.960022,3853.231934
43000_processed.fif,post-stress,70,short,0,4410.388184,4413.043945,2.655760999999984,2.091795999999704,0.5517570000001797,843.960022,3853.231934
43000_processed.fif,post-stress,71,short,0,4416.883789,4419.855957,2.9721679999993285,2.4082029999999577,0.5517580000005182,843.960022,3853.231934
43000_processed.fif,post-stress,72,short,0,4423.78418,4426.540039,2.7558590000007825,2.0917970000000423,0.5517579999996087,843.960022,3853.231934
43000_processed.fif,post-stress,73,short,0,4430.032227,4432.664062,2.6318350000001374,1.9638670000003913,0.4443360000004759,843.960022,3853.231934
43000_processed.fif,post-stress,74,short,0,4436.268066,4438.903809,2.63574300000073,1.9799810000004072,0.443847999999889,843.960022,3853.231934
43000_processed.fif,post-stress,75,short,0,4442.408203,4445.056152,2.6479490000001533,1.9799810000004072,0.5522460000001956,843.960022,3853.231934
43000_processed.fif,post-stress,76,short,1,4448.987793,4455.556152,6.568358999999873,1.3203119999998307,,843.960022,3853.231934
43000_processed.fif,post-stress,77,short,0,4459.063965,4461.804199,2.740233999999873,2.0722649999997884,0.5361320000001797,843.960022,3853.231934
43000_processed.fif,post-stress,78,short,0,4465.304199,4467.936035,2.6318359999995664,1.9599609999995664,0.4443359999995664,843.960022,3853.231934
43000_processed.fif,post-stress,79,short,0,4471.983887,4475.056152,3.0722649999997884,2.4082029999999577,0.443847999999889,843.960022,3853.231934
43000_processed.fif,post-stress,80,short,0,4478.551758,4481.295898,2.744140000000698,2.0761720000000423,0.43603499999971973,843.960022,3853.231934
43000_processed.fif,post-stress,81,short,0,4484.799805,4487.439941,2.640135999999984,1.972168000000238,0.43994199999997363,843.960022,3853.231934
43000_processed.fif,post-stress,82,short,0,4490.939941,4493.795898,2.8559570000006715,2.2001960000006875,0.5600590000003649,843.960022,3853.231934
43000_processed.fif,post-stress,83,short,1,4497.304199,4503.967773,6.663574000000153,1.4116210000001956,,843.960022,3853.231934
47131_processed.fif,pre-stress,1,short,0,845.036011,848.124023,3.088011999999935,2.416015000000016,0.556030000000078,827.244019,4033.315918
47131_processed.fif,pre-stress,2,short,0,852.140015,854.916016,2.7760010000000648,2.200012000000015,0.5560299999999643,827.244019,4033.315918
47131_processed.fif,pre-stress,3,short,0,858.299988,862.476013,4.1760249999999814,3.60803199999998,0.5480349999999135,827.244019,4033.315918
47131_processed.fif,pre-stress,4,short,0,865.864014,869.052002,3.1879880000000185,2.5159909999999854,0.4400029999999333,827.244019,4033.315918
47131_processed.fif,pre-stress,5,short,0,872.452026,875.200012,2.747985999999969,2.0959479999999076,0.5559700000000021,827.244019,4033.315918
47131_processed.fif,pre-stress,6,short,0,878.588013,881.547974,2.9599609999999075,2.287963999999988,0.5399780000000192,827.244019,4033.315918
47131_processed.fif,pre-stress,7,short,1,884.835999,891.176025,6.340025999999966,0.9879760000000033,,827.244019,4033.315918
47131_processed.fif,pre-stress,8,short,0,895.328003,897.960022,2.632019000000014,1.9680180000000291,0.4479989999999816,827.244019,4033.315918
47131_processed.fif,pre-stress,9,short,0,901.343994,904.200012,2.856018000000063,2.1959840000000668,0.5559690000000046,827.244019,4033.315918
47131_processed.fif,pre-stress,10,short,0,907.612,910.487976,2.875976000000037,2.3079830000000356,0.5679930000000013,827.244019,4033.315918
47131_processed.fif,pre-stress,11,short,0,913.888,916.763977,2.8759769999999207,2.20800799999995,0.5640260000000126,827.244019,4033.315918
47131_processed.fif,pre-stress,12,short,0,920.14801,922.812012,2.664001999999982,1.9840090000000146,0.44799799999998413,827.244019,4033.315918
47131_processed.fif,pre-stress,13,short,0,926.200012,928.952026,2.752014000000031,2.0880129999999326,0.4440309999999954,827.244019,4033.315918
47131_processed.fif,pre-stress,14,short,0,932.35199,935.112,2.7600099999999657,2.1879880000000185,0.5520020000000159,827.244019,4033.315918
47131_processed.fif,pre-stress,15,short,0,938.612,941.268005,2.65600500000005,2.0919790000000376,0.559996999999953,827.244019,4033.315918
47131_processed.fif,pre-stress,16,short,0,944.755981,947.507996,2.7520150000000285,2.0880129999999326,0.44799799999998413,827.244019,4033.315918
47131_processed.fif,pre-stress,17,short,0,951.0,953.632019,2.632019000000014,1.9719850000000179,0.5479740000000675,827.244019,4033.315918
47131_processed.fif,pre-stress,18,short,1,957.348022,963.580017,6.2319949999999835,0.9799809999999525,,827.244019,4033.315918
47131_processed.fif,pre-stress,19,short,0,967.088013,969.828003,2.7399899999999207,2.0759879999999384,0.5479729999999563,827.244019,4033.315918
47131_processed.fif,pre-stress,20,short,0,973.023987,975.747986,2.7239989999999352,2.0720209999999497,0.5399780000000192,827.244019,4033.315918
47131_processed.fif,pre-stress,21,short,0,979.231995,982.119995,2.8880000000000337,2.208007000000066,0.4440299999999979,827.244019,4033.315918
47131_processed.fif,pre-stress,22,short,0,986.179993,988.924011,2.7440179999999827,2.0720210000000634,0.5400389999999788,827.244019,4033.315918
47131_processed.fif,pre-stress,23,short,0,992.315979,995.16803,2.852051000000074,2.1960450000000264,0.5560299999999643,827.244019,4033.315918
47131_processed.fif,pre-stress,24,short,0,998.559998,1001.528015,2.9680170000000317,2.3079830000000356,0.5479739999999538,827.244019,4033.315918
47131_processed.fif,pre-stress,25,short,0,1004.919983,1007.755981,2.835998000000018,2.1879880000000185,0.5559690000000046,827.244019,4033.315918
47131_processed.fif,pre-stress,26,short,0,1011.164001,1013.919983,2.7559820000000173,2.0800179999999955,0.5520020000000159,827.244019,4033.315918
47131_processed.fif,pre-stress,27,short,0,1017.304016,1020.059998,2.7559819999999036,2.1919560000000047,0.5479740000000675,827.244019,4033.315918
47131_processed.fif,pre-stress,28,short,1,1030.088013,1036.31604,6.228026999999884,0.9840079999999034,,827.244019,4033.315918
47131_processed.fif,pre-stress,29,short,0,1039.819946,1042.552002,2.7320559999998295,2.092040999999881,0.5560299999999643,827.244019,4033.315918
47131_processed.fif,pre-stress,30,short,0,1045.947998,1048.692017,2.7440189999999802,2.092040999999881,0.5560299999999643,827.244019,4033.315918
47131_processed.fif,pre-stress,31,short,0,1052.079956,1054.807983,2.7280269999998836,2.072022000000061,0.5520020000001296,827.244019,4033.315918
47131_processed.fif,pre-stress,32,short,0,1058.196045,1060.952026,2.7559810000000198,2.0959470000000238,0.5599359999998796,827.244019,4033.315918
47131_processed.fif,pre-stress,33,short,0,1064.348022,1067.199951,2.8519290000001547,2.18396000000007,0.44396899999992456,827.244019,4033.315918
47131_processed.fif,pre-stress,34,short,0,1070.588013,1073.23999,2.651976999999988,2.0799560000000383,0.5479740000000675,827.244019,4033.315918
47131_processed.fif,pre-stress,35,short,1,1077.291992,1083.624023,6.332031000000143,0.9880370000000767,,827.244019,4033.315918
47131_processed.fif,pre-stress,36,short,0,1087.027954,1089.776001,2.7480470000000423,2.1840819999999894,0.5400389999999788,827.244019,4033.315918
47131_processed.fif,pre-stress,37,short,0,1093.271973,1096.02002,2.7480470000000423,2.0880120000001625,0.5560299999999643,827.244019,4033.315918
47131_processed.fif,pre-stress,38,short,0,1099.52002,1102.595947,3.0759270000000924,2.4279780000001665,0.5600590000001375,827.244019,4033.315918
47131_processed.fif,pre-stress,39,short,0,1105.991943,1108.764038,2.7720950000000357,2.0960700000000543,0.5600590000001375,827.244019,4033.315918
47131_processed.fif,pre-stress,40,short,0,1112.16394,1114.803955,2.640015000000176,1.9600830000001679,0.4400630000000092,827.244019,4033.315918
47131_processed.fif,pre-stress,41,short,0,1118.287964,1120.932007,2.6440430000000106,1.9720459999998639,0.4439700000000357,827.244019,4033.315918
47131_processed.fif,pre-stress,42,short,0,1124.332031,1127.079956,2.747925000000123,2.0799560000000383,0.44799799999987044,827.244019,4033.315918
47131_processed.fif,pre-stress,43,short,0,1130.47998,1133.215942,2.7359619999999722,2.0760499999998956,0.536010000000033,827.244019,4033.315918
47131_processed.fif,pre-stress,44,short,1,1136.604004,1142.832031,6.228026999999884,0.9880370000000767,,827.244019,4033.315918
47131_processed.fif,pre-stress,45,long,0,1179.024048,1181.764038,2.7399900000000343,2.0718990000000304,0.43591300000002775,827.244019,4033.315918
47131_processed.fif,pre-stress,46,long,0,1185.16394,1187.936035,2.7720950000000357,2.1040040000000317,0.5399169999998321,827.244019,4033.315918
47131_processed.fif,pre-stress,47,long,0,1191.31604,1194.060059,2.7440189999999802,2.0880130000000463,0.5520019999999022,827.244019,4033.315918
47131_processed.fif,pre-stress,48,long,0,1197.459961,1200.212036,2.752074999999877,2.0760499999998956,0.44396999999980835,827.244019,4033.315918
47131_processed.fif,pre-stress,49,long,0,1203.699951,1206.339966,2.6400149999999485,1.9720459999998639,0.44396999999980835,827.244019,4033.315918
47131_processed.fif,pre-stress,50,long,0,1209.843994,1212.488037,2.6440430000000106,1.9799809999999525,0.5599369999999908,827.244019,4033.315918
47131_processed.fif,pre-stress,51,long,0,1215.884033,1218.628052,2.7440189999999802,2.1920169999998507,0.5480959999999868,827.244019,4033.315918
47131_processed.fif,pre-stress,52,long,0,1222.128052,1224.880005,2.7519529999999577,2.083983999999873,0.4400630000000092,827.244019,4033.315918
47131_processed.fif,pre-stress,53,long,1,1228.368042,1249.612061,21.24401899999998,0.9759520000000066,,827.244019,4033.315918
47131_processed.fif,pre-stress,54,long,0,1253.656006,1256.192017,2.536011000000144,1.8719479999999749,0.4519040000000132,827.244019,4033.315918
47131_processed.fif,pre-stress,55,long,0,1259.696045,1262.251953,2.555908000000045,1.9879150000001573,0.5520020000001296,827.244019,4033.315918
47131_processed.fif,pre-stress,56,long,0,1265.852051,1268.5,2.647948999999926,1.9719239999999445,0.5520020000001296,827.244019,4033.315918
47131_processed.fif,pre-stress,57,long,0,1271.995972,1274.631958,2.6359860000000026,1.9560539999999946,0.4400630000000092,827.244019,4033.315918
47131_processed.fif,pre-stress,58,long,0,1278.135986,1280.791992,2.656005999999934,1.9840090000000146,0.45202599999993254,827.244019,4033.315918
47131_processed.fif,pre-stress,59,long,0,1284.192017,1287.280029,3.088011999999935,2.52001899999982,0.5440669999998136,827.244019,4033.315918
47131_processed.fif,pre-stress,60,long,0,1290.796021,1293.543945,2.7479239999997844,2.075926999999865,0.5479729999999563,827.244019,4033.315918
47131_processed.fif,pre-stress,61,long,0,1296.94397,1299.608032,2.664062000000058,1.9920649999999114,0.45202599999993254,827.244019,4033.315918
47131_processed.fif,pre-stress,62,long,0,1303.092041,1305.728027,2.6359860000000026,2.079955999999811,0.5479739999998401,827.244019,4033.315918
47131_processed.fif,pre-stress,63,long,1,1309.244019,1330.540039,21.29602,0.9959710000000541,,827.244019,4033.315918
47131_processed.fif,pre-stress,64,long,0,1334.052002,1336.708008,2.6560060000001613,1.9840090000000146,0.5560309999998481,827.244019,4033.315918
47131_processed.fif,pre-stress,65,long,0,1340.212036,1342.864014,2.651978000000099,1.9759520000000066,0.44799799999987044,827.244019,4033.315918
47131_processed.fif,pre-stress,66,long,0,1346.371948,1348.991943,2.619995000000017,1.9680180000000291,0.43994199999997363,827.244019,4033.315918
47131_processed.fif,pre-stress,67,long,0,1352.495972,1355.255981,2.760009000000082,2.099975000000086,0.559936000000107,827.244019,4033.315918
47131_processed.fif,pre-stress,68,long,0,1358.76001,1361.395996,2.6359860000000026,1.9759520000000066,0.5520019999999022,827.244019,4033.315918
47131_processed.fif,pre-stress,69,long,0,1364.904053,1367.667969,2.7639160000001084,2.0919189999999617,0.5560309999998481,827.244019,4033.315918
47131_processed.fif,pre-stress,70,long,0,1371.067993,1373.800049,2.732056000000057,2.076050000000123,0.5560299999999643,827.244019,4033.315918
47131_processed.fif,pre-stress,71,long,0,1377.303955,1379.828003,2.5240479999999934,1.8640139999999974,0.5479740000000675,827.244019,4033.315918
47131_processed.fif,pre-stress,72,long,0,1383.332031,1386.099976,2.7679450000000543,2.095948000000135,0.4439700000000357,827.244019,4033.315918
47131_processed.fif,pre-stress,73,long,0,1389.916016,1392.667969,2.751953000000185,2.0799560000000383,0.5399169999998321,827.244019,4033.315918
47131_processed.fif,pre-stress,74,long,0,1396.147949,1398.807983,2.660033999999996,1.9880370000000767,0.5639650000000529,827.244019,4033.315918
47131_processed.fif,pre-stress,75,long,0,1402.208008,1404.864014,2.656005999999934,1.9759520000000066,0.4479980000000978,827.244019,4033.315918
47131_processed.fif,pre-stress,76,long,0,1408.371948,1411.027954,2.656005999999934,2.0880130000000463,0.5599369999999908,827.244019,4033.315918
47131_processed.fif,pre-stress,77,long,1,1414.52002,1435.796021,21.27600100000018,0.991942999999992,,827.244019,4033.315918
47131_processed.fif,pre-stress,78,long,0,1439.307983,1442.167969,2.8599860000001627,2.19604500000014,0.5520020000001296,827.244019,4033.315918
47131_processed.fif,pre-stress,79,long,0,1445.68396,1448.44397,2.7600099999999657,2.088012999999819,0.43994199999997363,827.244019,4033.315918
47131_processed.fif,pre-stress,80,long,0,1451.952026,1454.708008,2.755982000000131,2.1959229999999934,0.5439449999998942,827.244019,4033.315918
47131_processed.fif,pre-stress,81,long,0,1458.319946,1460.959961,2.6400149999999485,1.9840090000000146,0.5559080000000449,827.244019,4033.315918
47131_processed.fif,pre-stress,82,long,0,1464.459961,1467.07605,2.6160889999998744,1.9680180000000291,0.5560310000000754,827.244019,4033.315918
47131_processed.fif,pre-stress,83,long,0,1470.583984,1473.547974,2.963989999999967,2.2960209999998824,0.5520019999999022,827.244019,4033.315918
47131_processed.fif,post-stress,1,short,1,4055.031982,4061.919922,6.8879400000000714,1.6320799999998599,,827.244019,4033.315918
47131_processed.fif,post-stress,2,short,0,4065.743896,4068.379883,2.6359870000001138,1.972168000000238,0.548095000000103,827.244019,4033.315918
47131_processed.fif,post-stress,3,short,0,4071.884033,4074.843994,2.959961000000021,2.191895000000386,0.44384800000034375,827.244019,4033.315918
47131_processed.fif,post-stress,4,short,0,4078.236084,4081.095947,2.8598629999996774,2.1999510000000555,0.5480959999999868,827.244019,4033.315918
47131_processed.fif,post-stress,5,short,0,4084.708008,4087.343994,2.6359859999997752,2.1918940000000475,0.43994100000008984,827.244019,4033.315918
47131_processed.fif,post-stress,6,short,0,4091.080078,4093.832031,2.7519529999999577,2.083983999999873,0.4440909999998439,827.244019,4033.315918
47131_processed.fif,post-stress,7,short,0,4097.335938,4100.191895,2.855956999999762,2.196288999999524,0.5483399999993708,827.244019,4033.315918
47131_processed.fif,post-stress,8,short,0,4103.695801,4106.551758,2.855956999999762,2.1923830000005182,0.4482430000007298,827.244019,4033.315918
47131_processed.fif,post-stress,9,short,0,4110.060059,4113.016113,2.9560539999993125,2.295897999999397,0.5400389999995241,827.244019,4033.315918
47131_processed.fif,post-stress,10,short,1,4116.512207,4122.740234,6.228027000000111,0.987793000000238,,827.244019,4033.315918
47131_processed.fif,post-stress,11,short,0,4126.344238,4128.987793,2.6435550000005605,2.0795900000002803,0.6557620000003226,827.244019,4033.315918
47131_processed.fif,post-stress,12,short,0,4132.600098,4135.259766,2.659668000000238,2.0917970000000423,0.5639650000002803,827.244019,4033.315918
47131_processed.fif,post-stress,13,short,0,4138.755859,4141.740234,2.984375,2.304200000000492,0.43994199999997363,827.244019,4033.315918
47131_processed.fif,post-stress,14,short,0,4145.244141,4148.248047,3.0039059999999154,2.315918000000238,0.4438480000007985,827.244019,4033.315918
47131_processed.fif,post-stress,15,short,0,4151.755859,4154.616211,2.8603519999996934,2.172364000000016,0.5483400000002803,827.244019,4033.315918
47131_processed.fif,post-stress,16,short,0,4158.124023,4160.868164,2.744141000000127,2.0800789999993867,0.4443359999995664,827.244019,4033.315918
47131_processed.fif,post-stress,17,short,0,4164.368164,4167.208008,2.839843999999175,2.0800779999999577,0.556152000000111,827.244019,4033.315918
47131_processed.fif,post-stress,18,short,1,4170.600098,4176.748047,6.147949000000153,0.9916990000001533,,827.244019,4033.315918
47131_processed.fif,post-stress,19,short,0,4180.26416,4182.928223,2.6640630000001693,2.0996100000002116,0.559570999999778,827.244019,4033.315918
47131_processed.fif,post-stress,20,short,0,4186.540039,4189.080078,2.540038999999524,1.868163999999524,0.4443359999995664,827.244019,4033.315918
47131_processed.fif,post-stress,21,short,0,4192.583984,4195.231934,2.647950000000492,1.9799810000004072,0.5517580000005182,827.244019,4033.315918
47131_processed.fif,post-stress,22,short,0,4198.728027,4201.571777,2.84375,2.2797849999997197,0.5400389999995241,827.244019,4033.315918
47131_processed.fif,post-stress,23,short,0,4205.184082,4207.948242,2.7641600000006292,2.083983999999873,0.5522459999992861,827.244019,4033.315918
47131_processed.fif,post-stress,24,short,0,4211.536133,4214.171875,2.6357420000003913,1.9838870000003226,0.5600590000003649,827.244019,4033.315918
47131_processed.fif,post-stress,25,short,0,4217.664062,4220.395996,2.731934000000365,2.0761720000000423,0.5400389999995241,827.244019,4033.315918
47131_processed.fif,post-stress,26,short,1,4227.928223,4234.164062,6.235838999999942,0.9799800000000687,,827.244019,4033.315918
47131_processed.fif,post-stress,27,short,0,4237.667969,4240.436035,2.768065999999635,2.1040039999998044,0.4521489999997357,827.244019,4033.315918
47131_processed.fif,post-stress,28,short,0,4243.943848,4246.704102,2.7602539999998044,2.0922849999997197,0.5600589999994554,827.244019,4033.315918
47131_processed.fif,post-stress,29,short,0,4250.312012,4252.959961,2.647948999999244,1.9721679999993285,0.543945999999778,827.244019,4033.315918
47131_processed.fif,post-stress,30,short,0,4256.36377,4259.224121,2.8603510000002643,2.1879879999996774,0.43994199999997363,827.244019,4033.315918
47131_processed.fif,post-stress,31,short,0,4262.839844,4265.687988,2.848143999999593,2.196288999999524,0.5439449999994395,827.244019,4033.315918
47131_processed.fif,post-stress,32,short,0,4269.191895,4272.171875,2.9799800000000687,2.3159169999998994,0.5556639999995241,827.244019,4033.315918
47131_processed.fif,post-stress,33,short,0,4275.671875,4278.403809,2.731934000000365,2.068358999999873,0.5444330000000264,827.244019,4033.315918
47131_processed.fif,post-stress,34,short,1,4281.903809,4288.13623,6.232420999999704,0.9960929999997461,,827.244019,4033.315918
47131_processed.fif,post-stress,35,short,0,4291.748047,4294.600098,2.8520509999998467,2.1879879999996774,0.5439449999994395,827.244019,4033.315918
47131_processed.fif,post-stress,36,short,0,4298.432129,4301.423828,2.9916990000001533,2.3198240000001533,0.45214800000030664,827.244019,4033.315918
47131_processed.fif,post-stress,37,short,0,4304.928223,4307.89209,2.9638670000003913,2.299804000000222,,827.244019,4033.315918
47131_processed.fif,post-stress,38,short,0,4311.399902,4315.032227,3.6323249999995824,3.0800779999999577,0.671875,827.244019,4033.315918
47131_processed.fif,post-stress,39,short,0,4318.620117,4321.604004,2.983886999999413,2.412109999999302,0.5522469999996247,827.244019,4033.315918
47131_processed.fif,post-stress,40,short,0,4325.211914,4328.180176,2.968261999999413,2.3081059999994977,0.55615299999954,827.244019,4033.315918
47131_processed.fif,post-stress,41,short,0,4331.680176,4334.728027,3.0478510000002643,2.399902000000111,0.443847999999889,827.244019,4033.315918
47131_processed.fif,post-stress,42,short,0,4338.248047,4341.228027,2.9799800000000687,2.315918000000238,0.5517580000005182,827.244019,4033.315918
47131_processed.fif,post-stress,43,short,0,4344.724121,4347.459961,2.7358399999993708,2.071777000000111,0.4360350000006292,827.244019,4033.315918
47131_processed.fif,post-stress,44,short,1,4350.959961,4357.299805,6.339844000000085,1.087891000000127,,827.244019,4033.315918
47131_processed.fif,post-stress,45,long,0,4391.804199,4394.779785,2.9755859999995664,2.4077150000002803,0.543945000000349,827.244019,4033.315918
47131_processed.fif,post-stress,46,long,0,4398.379883,4400.916016,2.5361330000005182,1.9682620000003226,0.543945999999778,827.244019,4033.315918
47131_processed.fif,post-stress,47,long,0,4404.527832,4407.255859,2.728027000000111,2.083983999999873,0.44775399999980436,827.244019,4033.315918
47131_processed.fif,post-stress,48,long,0,4410.868164,4413.52002,2.6518559999994977,1.9877929999993285,0.5639649999993708,827.244019,4033.315918
47131_processed.fif,post-stress,49,long,0,4417.023926,4419.768066,2.7441399999997884,2.083983999999873,0.556152000000111,827.244019,4033.315918
47131_processed.fif,post-stress,50,long,0,4423.275879,4426.124023,2.8481440000005023,2.184081999999762,0.5478519999996934,827.244019,4033.315918
47131_processed.fif,post-stress,51,long,0,4429.624023,4432.492188,2.8681649999998626,2.2041019999996934,0.556152000000111,827.244019,4033.315918
47131_processed.fif,post-stress,52,long,0,4436.0,4438.848145,2.8481449999999313,2.2041019999996934,0.4443359999995664,827.244019,4033.315918
47131_processed.fif,post-stress,53,long,0,4442.352051,4445.007812,2.655760999999984,1.9799800000000687,0.4482419999994818,827.244019,4033.315918
47131_processed.fif,post-stress,54,long,0,4448.512207,4451.379883,2.8676759999998467,2.187988000000587,0.5483400000002803,827.244019,4033.315918
47131_processed.fif,post-stress,55,long,0,4454.883789,4457.527832,2.6440429999993285,2.0800779999999577,0.5517580000005182,827.244019,4033.315918
47131_processed.fif,post-stress,56,long,1,4462.23584,4483.527832,21.291991999999482,1.1083979999993971,,827.244019,4033.315918
47131_processed.fif,post-stress,57,long,0,4487.131836,4490.003906,2.872070000000349,2.1923830000005182,0.44824200000039127,827.244019,4033.315918
47131_processed.fif,post-stress,58,long,0,4493.512207,4496.47998,2.9677730000003066,2.2998050000005605,0.5561530000004495,827.244019,4033.315918
47131_processed.fif,post-stress,59,long,0,4500.083984,4503.047852,2.9638679999998203,2.3999030000004495,0.5478520000006029,827.244019,4033.315918
47131_processed.fif,post-stress,60,long,0,4506.647949,4509.516113,2.868163999999524,2.184081999999762,0.5478510000002643,827.244019,4033.315918
47131_processed.fif,post-stress,61,long,0,4513.02002,4515.888184,2.8681640000004336,2.3041990000001533,0.6640630000001693,827.244019,4033.315918
47131_processed.fif,post-stress,62,long,0,4519.503906,4522.255859,2.7519529999999577,2.1962890000004336,0.5483400000002803,827.244019,4033.315918
47131_processed.fif,post-stress,63,long,0,4532.23584,4534.983887,2.7480470000000423,2.184081999999762,0.5400390000004336,827.244019,4033.315918
47131_processed.fif,post-stress,64,long,0,4538.583984,4541.332031,2.7480470000000423,2.087891000000127,0.5517579999996087,827.244019,4033.315918
47131_processed.fif,post-stress,65,long,0,4544.835938,4547.799805,2.9638669999994818,2.3002919999998994,0.5522460000001956,827.244019,4033.315918
47131_processed.fif,post-stress,66,long,1,4551.395996,4572.680176,21.28417999999965,0.9921880000001693,,827.244019,4033.315918
47131_processed.fif,post-stress,67,long,0,4576.271973,4578.919922,2.6479490000001533,1.983885999999984,0.44384699999955046,827.244019,4033.315918
47131_processed.fif,post-stress,68,long,0,4582.532227,4585.171875,2.6396480000003066,2.0756830000000264,0.5517579999996087,827.244019,4033.315918
47131_processed.fif,post-stress,69,long,0,4588.779785,4591.631836,2.8520509999998467,2.1923830000005182,0.5483400000002803,827.244019,4033.315918
47131_processed.fif,post-stress,70,long,0,4595.228027,4597.959961,2.7319339999994554,2.1679690000000846,0.5400390000004336,827.244019,4033.315918
47131_processed.fif,post-stress,71,long,0,4601.39209,4604.140137,2.7480470000000423,2.0800779999999577,0.4399410000005446,827.244019,4033.315918
47131_processed.fif,post-stress,72,long,0,4607.651855,4610.516113,2.8642579999996087,2.2041019999996934,0.44775399999980436,827.244019,4033.315918
47131_processed.fif,post-stress,73,long,0,4614.027832,4616.795898,2.7680660000005446,2.0883789999998044,0.5483399999993708,827.244019,4033.315918
47131_processed.fif,post-stress,74,long,0,4620.395996,4623.032227,2.6362309999994977,1.9760740000001533,0.5478510000002643,827.244019,4033.315918
47131_processed.fif,post-stress,75,long,0,4626.63623,4629.279785,2.643554999999651,2.087891000000127,0.5522460000001956,827.244019,4033.315918
47131_processed.fif,post-stress,76,long,0,4632.895996,4635.62793,2.7319339999994554,2.071777000000111,0.5478510000002643,827.244019,4033.315918
47131_processed.fif,post-stress,77,long,0,4639.131836,4641.791992,2.660156000000825,2.0961910000005446,0.44384700000045996,827.244019,4033.315918
47131_processed.fif,post-stress,78,long,0,4645.395996,4648.051758,2.655761999999413,2.0961919999999736,0.5483400000002803,827.244019,4033.315918
47131_processed.fif,post-stress,79,long,1,4652.200195,4673.583984,21.383788999999524,1.099609999999302,,827.244019,4033.315918
47131_processed.fif,post-stress,80,long,0,4677.187988,4680.051758,2.8637699999999313,2.2001960000006875,0.5600590000003649,827.244019,4033.315918
47131_processed.fif,post-stress,81,long,0,4683.560059,4686.412109,2.852049999999508,2.184081999999762,0.5522460000001956,827.244019,4033.315918
47131_processed.fif,post-stress,82,long,0,4689.916016,4692.78418,2.868163999999524,2.1879879999996774,0.43994199999997363,827.244019,4033.315918
47204_processed.fif,pre-stress,1,short,0,713.85199,716.719971,2.867980999999986,2.20800799999995,0.5599979999999505,695.932007,3691.60791
47204_processed.fif,pre-stress,2,short,0,720.664001,723.624023,2.960021999999981,2.296020999999996,0.44000199999993583,695.932007,3691.60791
47204_processed.fif,pre-stress,3,short,0,727.776001,730.940002,3.1640010000000984,2.520020000000045,0.5560309999999618,695.932007,3691.60791
47204_processed.fif,pre-stress,4,short,0,735.107971,738.604004,3.4960330000000113,2.8359990000000153,0.5399780000000192,695.932007,3691.60791
47204_processed.fif,pre-stress,5,short,0,743.635986,746.495972,2.859986000000049,2.187989000000016,0.5439460000000054,695.932007,3691.60791
47204_processed.fif,pre-stress,6,short,0,750.33197,753.088013,2.7560430000000906,2.192017000000078,0.5479740000000675,695.932007,3691.60791
47204_processed.fif,pre-stress,7,short,0,757.244019,760.411987,3.1679679999999735,2.5119620000000396,0.5440059999999676,695.932007,3691.60791
47204_processed.fif,pre-stress,8,short,0,764.263977,775.064026,10.800049000000058,10.140015000000062,0.5479740000000675,695.932007,3691.60791
47204_processed.fif,pre-stress,9,short,0,779.424011,786.971985,7.5479740000000675,6.984009000000015,0.5400389999999788,695.932007,3691.60791
47204_processed.fif,pre-stress,10,short,0,791.35199,794.296021,2.9440309999999954,2.2960199999999986,0.4400020000000495,695.932007,3691.60791
47204_processed.fif,pre-stress,11,short,0,801.723999,805.783997,4.0599979999999505,3.403991999999903,0.44799799999998413,695.932007,3691.60791
47204_processed.fif,pre-stress,12,short,0,809.935974,817.143982,7.2080080000000635,6.556029999999964,0.5520019999999022,695.932007,3691.60791
47204_processed.fif,pre-stress,13,short,0,821.73999,827.340027,5.600036999999929,5.0480349999999135,0.568053999999961,695.932007,3691.60791
47204_processed.fif,pre-stress,14,short,0,831.815979,841.752014,9.93603500000006,9.268005000000016,0.5559690000000046,695.932007,3691.60791
47204_processed.fif,pre-stress,15,short,0,846.564026,855.747986,9.183959999999956,8.519957999999974,0.44396900000003825,695.932007,3691.60791
47204_processed.fif,pre-stress,16,short,1,861.307983,868.531982,7.223998999999935,1.9760139999999637,,695.932007,3691.60791
47204_processed.fif,pre-stress,17,short,0,874.76001,877.916016,3.1560060000000476,2.5039669999999887,0.5399779999999055,695.932007,3691.60791
47204_processed.fif,pre-stress,18,short,0,882.835999,885.804016,2.9680170000000317,2.3079830000000356,0.4479980000000978,695.932007,3691.60791
47204_processed.fif,pre-stress,19,short,0,889.952026,893.471985,3.5199589999999716,2.8519900000000007,0.4520260000000462,695.932007,3691.60791
47204_processed.fif,pre-stress,20,short,0,898.047974,917.812012,19.764038000000028,19.200012000000015,0.5399780000000192,695.932007,3691.60791
47204_processed.fif,pre-stress,21,short,0,922.072021,928.867981,6.795960000000036,6.1279910000000655,0.44799799999998413,695.932007,3691.60791
47204_processed.fif,pre-stress,22,short,0,933.460022,936.219971,2.759949000000006,2.0839839999999867,0.4440299999999979,695.932007,3691.60791
47204_processed.fif,pre-stress,23,short,0,940.695984,943.455994,2.7600100000000793,2.08404500000006,0.4440299999999979,695.932007,3691.60791
47204_processed.fif,pre-stress,24,short,0,946.94397,950.580017,3.6360469999999623,2.9560539999999946,0.5520020000000159,695.932007,3691.60791
47204_processed.fif,pre-stress,25,short,0,954.744019,957.599976,2.8559569999999894,2.1999510000000555,0.5559700000000021,695.932007,3691.60791
47204_processed.fif,pre-stress,26,short,0,961.755981,964.400024,2.6440430000000106,2.075988999999936,0.5559690000000046,695.932007,3691.60791
47204_processed.fif,pre-stress,27,short,0,968.656006,971.375977,2.719970999999987,2.059996999999953,0.4320060000000012,695.932007,3691.60791
47204_processed.fif,pre-stress,28,short,0,975.559998,978.307983,2.747985000000085,2.1920160000000806,0.5520020000000159,695.932007,3691.60791
47204_processed.fif,pre-stress,29,short,0,982.471985,985.567993,3.0960079999999834,2.5360110000000304,0.5599980000000642,695.932007,3691.60791
47204_processed.fif,pre-stress,30,short,0,989.711975,992.487976,2.776000999999951,2.0880129999999326,0.5559690000000046,695.932007,3691.60791
47204_processed.fif,pre-stress,31,short,1,997.632019,1004.528015,6.895995999999968,1.5279540000000225,,695.932007,3691.60791
47204_processed.fif,pre-stress,32,short,0,1009.223999,1012.088013,2.8640139999999974,2.3040159999999332,0.559996999999953,695.932007,3691.60791
47204_processed.fif,pre-stress,33,long,0,1049.271973,1052.475952,3.2039790000001176,2.524048000000221,0.4439700000000357,695.932007,3691.60791
47204_processed.fif,pre-stress,34,long,0,1056.416016,1059.371948,2.9559320000000753,2.3039550000000872,0.5479740000000675,695.932007,3691.60791
47204_processed.fif,pre-stress,35,long,0,1063.319946,1066.395996,3.0760499999998956,2.400024999999914,0.5360109999999167,695.932007,3691.60791
47204_processed.fif,pre-stress,36,long,0,1070.439941,1072.963989,2.5240479999999934,2.088012999999819,0.5520019999999022,695.932007,3691.60791
47204_processed.fif,pre-stress,37,long,0,1076.68396,1079.656006,2.972045999999864,2.4040529999999762,0.5520020000001296,695.932007,3691.60791
47204_processed.fif,pre-stress,38,long,0,1083.276001,1087.02002,3.7440189999999802,3.067993000000115,0.559936000000107,695.932007,3691.60791
47204_processed.fif,pre-stress,39,long,0,1091.171997,1093.832031,2.660033999999996,2.0920410000001084,0.5560299999999643,695.932007,3691.60791
47204_processed.fif,pre-stress,40,long,0,1097.97998,1100.723999,2.7440189999999802,2.088012999999819,0.44799799999987044,695.932007,3691.60791
47204_processed.fif,pre-stress,41,long,0,1104.891968,1107.767944,2.875976000000037,2.312010999999984,0.5639639999999417,695.932007,3691.60791
47204_processed.fif,pre-stress,42,long,0,1111.819946,1114.560059,2.7401129999998375,2.0679929999998876,0.5358879999998862,695.932007,3691.60791
47204_processed.fif,pre-stress,43,long,0,1118.052002,1120.791992,2.7399900000000343,2.0920410000001084,0.5600589999999102,695.932007,3691.60791
47204_processed.fif,pre-stress,44,long,1,1124.932007,1146.891968,21.959960999999794,1.7640379999998004,,695.932007,3691.60791
47204_processed.fif,pre-stress,45,long,0,1152.343994,1155.212036,2.868041999999832,2.1960449999999128,0.4440919999999551,695.932007,3691.60791
47204_processed.fif,pre-stress,46,long,0,1159.124023,1162.092041,2.968018000000029,2.4039309999998295,0.5479739999998401,695.932007,3691.60791
47204_processed.fif,pre-stress,47,long,0,1165.916016,1168.900024,2.984008000000131,2.3160400000001573,0.5640869999999722,695.932007,3691.60791
47204_processed.fif,pre-stress,48,long,0,1173.036011,1176.895996,3.8599850000000515,3.18396000000007,0.5599369999999908,695.932007,3691.60791
47204_processed.fif,pre-stress,49,long,0,1180.508057,1183.251953,2.7438959999999497,2.18396000000007,0.5479740000000675,695.932007,3691.60791
47204_processed.fif,pre-stress,50,long,0,1186.859985,1189.651978,2.7919930000000477,2.232056000000057,0.37609900000006746,695.932007,3691.60791
47204_processed.fif,pre-stress,51,long,0,1193.920044,1197.208008,3.287964000000102,2.627930000000106,0.43994199999997363,695.932007,3691.60791
47204_processed.fif,pre-stress,52,long,0,1202.244019,1205.31604,3.0720209999999497,2.4119869999999537,0.4360349999999471,695.932007,3691.60791
47204_processed.fif,pre-stress,53,long,0,1208.911987,1211.671997,2.7600099999999657,2.0880130000000463,0.5439449999998942,695.932007,3691.60791
47204_processed.fif,pre-stress,54,long,0,1215.176025,1218.124023,2.947998000000098,2.2839360000000397,0.5360109999999167,695.932007,3691.60791
47204_processed.fif,pre-stress,55,long,0,1222.180054,1225.043945,2.863890999999967,2.291992000000164,0.6480710000000727,695.932007,3691.60791
47204_processed.fif,pre-stress,56,long,0,1229.196045,1232.052002,2.8559569999999894,2.1959229999999934,0.5520019999999022,695.932007,3691.60791
47204_processed.fif,pre-stress,57,long,0,1235.660034,1238.432007,2.7719730000001164,2.1040040000000317,0.45202599999993254,695.932007,3691.60791
47204_processed.fif,pre-stress,58,long,0,1242.583984,1245.328003,2.7440189999999802,2.079955999999811,0.5559079999998175,695.932007,3691.60791
47204_processed.fif,pre-stress,59,long,0,1248.832031,1251.687988,2.8559569999999894,2.1959229999999934,0.5520019999999022,695.932007,3691.60791
47204_processed.fif,pre-stress,60,long,0,1256.387939,1259.235962,2.848023000000012,2.19604500000014,0.5520020000001296,695.932007,3691.60791
47204_processed.fif,pre-stress,61,long,0,1263.608032,1266.248047,2.6400149999999485,1.9759520000000066,0.44396900000015194,695.932007,3691.60791
47204_processed.fif,pre-stress,62,long,1,1270.303955,1292.23999,21.936034999999947,1.6400149999999485,,695.932007,3691.60791
47204_processed.fif,pre-stress,63,long,0,1296.715942,1299.671997,2.9560549999998784,2.284057999999959,0.4320070000001124,695.932007,3691.60791
47204_processed.fif,pre-stress,64,long,0,1303.94397,1306.583984,2.6400140000000647,2.0800779999999577,0.5480959999999868,695.932007,3691.60791
47204_processed.fif,pre-stress,65,long,0,1310.192017,1312.927979,2.7359619999999722,2.1760249999999814,0.5480959999999868,695.932007,3691.60791
47204_processed.fif,pre-stress,66,long,0,1316.543945,1320.391968,3.848023000000012,3.1760260000000926,0.4479980000000978,695.932007,3691.60791
47204_processed.fif,pre-stress,67,long,0,1325.855957,1329.472046,3.616089000000102,3.0640869999999722,0.5560299999999643,695.932007,3691.60791
47204_processed.fif,pre-stress,68,long,0,1336.248047,1339.199951,2.951904000000013,2.3959959999999683,0.5440670000000409,695.932007,3691.60791
47204_processed.fif,pre-stress,69,long,0,1343.459961,1346.332031,2.872069999999894,2.20397899999989,0.5518789999998717,695.932007,3691.60791
47204_processed.fif,post-stress,1,long,0,3713.924072,3716.904053,2.979981000000407,2.3120120000003226,0.44409200000018245,695.932007,3691.60791
47204_processed.fif,post-stress,2,long,0,3721.052002,3724.016113,2.96411100000023,2.3000489999999445,0.5520019999999022,695.932007,3691.60791
47204_processed.fif,post-stress,3,long,0,3727.508057,3730.916016,3.407959000000119,2.7438959999999497,0.5520019999999022,695.932007,3691.60791
47204_processed.fif,post-stress,4,long,0,3734.843994,3737.827881,2.9838870000003226,2.3039550000003146,0.5520020000003569,695.932007,3691.60791
47204_processed.fif,post-stress,5,long,0,3741.436035,3744.295898,2.8598629999996774,2.1879879999996774,0.4399409999996351,695.932007,3691.60791
47204_processed.fif,post-stress,6,long,0,3747.808105,3750.808105,3.0,2.443847999999889,0.3520509999998467,695.932007,3691.60791
47204_processed.fif,post-stress,7,long,0,3754.763916,3757.843994,3.0800779999999577,2.296143000000029,0.43603600000005827,695.932007,3691.60791
47204_processed.fif,post-stress,8,long,0,3761.575928,3764.335938,2.7600099999999657,2.2041009999998096,0.5559079999998175,695.932007,3691.60791
47204_processed.fif,post-stress,9,long,0,3768.167969,3771.011963,2.8439939999998387,2.083983999999873,0.43994100000008984,695.932007,3691.60791
47204_processed.fif,post-stress,10,long,0,3774.412109,3777.612061,3.1999519999999393,2.5197760000000926,0.5478520000001481,695.932007,3691.60791
47204_processed.fif,post-stress,11,long,0,3781.76001,3784.62793,2.86792000000014,2.312010999999984,0.5520010000000184,695.932007,3691.60791
47204_processed.fif,post-stress,12,long,0,3788.120117,3791.0,2.8798830000000635,2.1999510000000555,0.548095000000103,695.932007,3691.60791
47204_processed.fif,post-stress,13,long,0,3794.944092,3797.808105,2.8640129999998862,2.1879879999996774,0.44018499999992855,695.932007,3691.60791
47204_processed.fif,post-stress,14,long,0,3801.531982,3804.176025,2.644043000000238,1.9641120000001138,0.5400389999999788,695.932007,3691.60791
47204_processed.fif,post-stress,15,long,0,3807.572021,3810.748047,3.1760260000000926,2.627930000000106,0.5600580000000264,695.932007,3691.60791
47204_processed.fif,post-stress,16,long,0,3814.800049,3817.560059,2.7600099999999657,2.079834000000119,0.5520019999999022,695.932007,3691.60791
47204_processed.fif,post-stress,17,long,0,3821.399902,3824.144043,2.744140999999672,2.0800779999999577,0.548095000000103,695.932007,3691.60791
47204_processed.fif,post-stress,18,long,1,3827.756104,3849.808105,22.05200100000002,1.755858999999873,,695.932007,3691.60791
47204_processed.fif,post-stress,19,long,0,3854.072021,3860.424072,6.352050999999847,5.69604500000014,0.44409100000029866,695.932007,3691.60791
47204_processed.fif,post-stress,20,long,0,3864.023926,3866.656006,2.6320800000003146,2.0761720000000423,0.5441900000000714,695.932007,3691.60791
47204_processed.fif,post-stress,21,long,0,3870.263916,3873.0,2.736084000000119,2.0800779999999577,0.5400389999999788,695.932007,3691.60791
47204_processed.fif,post-stress,22,long,0,3876.508057,3879.795898,3.287840999999844,2.6279289999997673,0.44799799999964307,695.932007,3691.60791
47204_processed.fif,post-stress,23,long,0,3883.291992,3886.248047,2.956055000000106,2.3840330000002723,0.543945000000349,695.932007,3691.60791
47204_processed.fif,post-stress,24,long,0,3889.860107,3892.947998,3.087891000000127,2.5239259999998467,0.5561519999996563,695.932007,3691.60791
47204_processed.fif,post-stress,25,long,0,3896.552002,3899.491943,2.93994100000009,2.288086000000021,0.5400389999999788,695.932007,3691.60791
47204_processed.fif,post-stress,26,long,0,3903.104004,3905.751953,2.6479490000001533,1.9799800000000687,0.43994100000008984,695.932007,3691.60791
47204_processed.fif,post-stress,27,long,0,3909.36792,3912.243896,2.8759759999998096,2.320067999999992,0.5600580000000264,695.932007,3691.60791
47204_processed.fif,post-stress,28,long,0,3915.855957,3922.407959,6.552001999999902,5.991942999999992,0.5478510000002643,695.932007,3691.60791
47204_processed.fif,post-stress,29,long,0,3925.907959,3928.756104,2.8481449999999313,2.1960449999996854,0.5520019999999022,695.932007,3691.60791
47204_processed.fif,post-stress,30,long,0,3932.26001,3934.996094,2.736084000000119,2.19604500000014,0.6640630000001693,695.932007,3691.60791
47204_processed.fif,post-stress,31,long,0,3938.600098,3941.47998,2.8798820000001797,2.1999510000000555,0.4440919999997277,695.932007,3691.60791
47204_processed.fif,post-stress,32,long,0,3945.095947,3947.63208,2.5361330000000635,1.9799810000004072,0.5520020000003569,695.932007,3691.60791
47204_processed.fif,post-stress,33,long,0,3951.256104,3954.23999,2.983885999999984,2.30395499999986,0.5480959999999868,695.932007,3691.60791
47204_processed.fif,post-stress,34,long,0,3957.73999,3960.496094,2.7561040000000503,2.083984999999757,0.5600589999999102,695.932007,3691.60791
47204_processed.fif,post-stress,35,long,0,3963.820068,3966.568115,2.7480470000000423,2.19604500000014,0.548095000000103,695.932007,3691.60791
47204_processed.fif,post-stress,36,long,1,3971.043945,3992.87207,21.828125,1.5280760000000555,,695.932007,3691.60791
47204_processed.fif,post-stress,37,long,0,3996.491943,3999.476074,2.9841310000001613,2.3081059999999525,0.4479980000000978,695.932007,3691.60791
47204_processed.fif,post-stress,38,long,0,4003.083984,4009.875977,6.791993000000275,6.127930000000106,0.5598140000001877,695.932007,3691.60791
47204_processed.fif,post-stress,39,short,0,4046.73999,4049.280029,2.540038999999979,1.9719239999999445,0.5559079999998175,695.932007,3691.60791
47204_processed.fif,post-stress,40,short,0,4053.439941,4056.419922,2.9799809999999525,2.3081059999999525,0.556152000000111,695.932007,3691.60791
47204_processed.fif,post-stress,41,short,0,4060.035889,4062.783936,2.7480469999995876,2.188231999999971,0.5400389999999788,695.932007,3691.60791
47204_processed.fif,post-stress,42,short,0,4066.404053,4069.251953,2.847899999999754,2.1799309999996694,0.43994100000008984,695.932007,3691.60791
47204_processed.fif,post-stress,43,short,0,4072.8479,4075.600098,2.75219799999968,2.092040999999881,0.5520019999999022,695.932007,3691.60791
47204_processed.fif,post-stress,44,short,0,4079.211914,4082.068115,2.8562010000000555,2.1921390000002248,0.5561529999999948,695.932007,3691.60791
47204_processed.fif,post-stress,45,short,0,4086.340088,4089.224121,2.8840330000002723,2.1999510000000555,0.4479980000000978,695.932007,3691.60791
47204_processed.fif,post-stress,46,short,0,4092.832031,4095.924072,3.092040999999881,2.4118650000000343,0.5520010000000184,695.932007,3691.60791
47204_processed.fif,post-stress,47,short,0,4100.191895,4103.032227,2.840331999999762,2.1879879999996774,0.44775399999980436,695.932007,3691.60791
47204_processed.fif,post-stress,48,short,0,4107.295898,4110.375977,3.0800789999993867,2.4199220000000423,0.5556640000004336,695.932007,3691.60791
47204_processed.fif,post-stress,49,short,0,4114.527832,4117.611816,3.083983999999873,2.4082029999999577,0.4399409999996351,695.932007,3691.60791
47204_processed.fif,post-stress,50,short,0,4121.888184,4124.740234,2.852049999999508,2.199706999999762,0.443847999999889,695.932007,3691.60791
47204_processed.fif,post-stress,51,short,0,4128.459961,4131.335938,2.875977000000603,2.200195000000349,0.4443359999995664,695.932007,3691.60791
47204_processed.fif,post-stress,52,short,1,4135.171875,4141.86377,6.691894999999931,1.5400390000004336,,695.932007,3691.60791
47204_processed.fif,post-stress,53,short,0,4145.691895,4148.868164,3.1762690000005023,2.528320000000349,0.5522460000001956,695.932007,3691.60791
47204_processed.fif,post-stress,54,short,0,4152.472168,4155.231934,2.759766000000127,2.0957029999999577,0.443847999999889,695.932007,3691.60791
47204_processed.fif,post-stress,55,short,0,4158.839844,4161.591797,2.7519529999999577,2.083983999999873,0.44775399999980436,695.932007,3691.60791
47204_processed.fif,post-stress,56,short,0,4165.291992,4168.056152,2.7641599999997197,2.0878909999992175,0.45165999999971973,695.932007,3691.60791
47204_processed.fif,post-stress,57,short,-1,4171.768066,4174.5,2.731934000000365,,,695.932007,3691.60791
47204_processed.fif,post-stress,58,short,0,4177.932129,4180.695801,2.7636720000000423,2.087891000000127,0.4482429999998203,695.932007,3691.60791
47204_processed.fif,post-stress,59,short,0,4184.540039,4187.383789,2.84375,2.184081999999762,0.5400390000004336,695.932007,3691.60791
47204_processed.fif,post-stress,60,short,0,4191.003906,4193.751953,2.7480470000000423,2.1962890000004336,0.5522460000001956,695.932007,3691.60791
47204_processed.fif,post-stress,61,short,0,4198.032227,4200.791992,2.759765000000698,2.087890000000698,0.556152000000111,695.932007,3691.60791
47204_processed.fif,post-stress,62,short,0,4204.412109,4207.379883,2.9677739999997357,2.303711000000476,0.44775400000071386,695.932007,3691.60791
47204_processed.fif,post-stress,63,short,0,4210.996094,4213.844238,2.848143999999593,2.191893999999593,0.5517579999996087,695.932007,3691.60791
47204_processed.fif,post-stress,64,short,0,4217.456055,4220.208008,2.7519529999999577,2.1918940000005023,0.6640619999998307,695.932007,3691.60791
47204_processed.fif,post-stress,65,short,0,4223.824219,4226.695801,2.871581999999762,2.2036129999996774,0.5600589999994554,695.932007,3691.60791
47204_processed.fif,post-stress,66,short,0,4230.419922,4233.187988,2.768065999999635,2.0922849999997197,0.5600589999994554,695.932007,3691.60791
47204_processed.fif,post-stress,67,short,0,4236.795898,4239.651855,2.855956999999762,2.1918949999999313,0.543945000000349,695.932007,3691.60791
47204_processed.fif,post-stress,68,short,1,4243.26416,4250.251953,6.987793000000238,1.759766000000127,,695.932007,3691.60791
47204_processed.fif,post-stress,69,short,0,4254.523926,4257.39209,2.8681640000004336,2.200195000000349,0.5522460000001956,695.932007,3691.60791
47204_processed.fif,post-stress,70,short,0,4261.02002,4263.768066,2.748045999999704,2.076170999999704,0.4404289999993125,695.932007,3691.60791
47204_processed.fif,post-stress,71,short,0,4268.248047,4271.0,2.7519529999999577,2.184081999999762,0.5483399999993708,695.932007,3691.60791
47204_processed.fif,post-stress,72,short,0,4274.620117,4277.687988,3.067870999999286,2.2919919999994818,0.4443359999995664,695.932007,3691.60791
47204_processed.fif,post-stress,73,short,0,4281.288086,4284.023926,2.7358400000002803,2.075684000000365,0.5556649999998626,695.932007,3691.60791
47204_processed.fif,post-stress,74,short,0,4288.26416,4291.02002,2.7558600000002116,2.087891000000127,0.5478519999996934,695.932007,3691.60791
47204_processed.fif,post-stress,75,short,0,4294.631836,4297.576172,2.944336000000476,2.2841800000005605,0.5400390000004336,695.932007,3691.60791
47204_processed.fif,post-stress,76,short,0,4302.060059,4305.379883,3.319823999999244,2.6440429999993285,0.4443359999995664,695.932007,3691.60791
47204_processed.fif,post-stress,77,short,0,4309.655762,4312.611816,2.9560539999993125,2.2841789999993125,0.5439449999994395,695.932007,3691.60791
47204_processed.fif,post-stress,78,short,0,4316.563965,4319.428223,2.8642579999996087,2.2001949999994395,0.5522459999992861,695.932007,3691.60791
47204_processed.fif,post-stress,79,short,0,4323.583984,4326.551758,2.9677739999997357,2.308106000000407,0.5600590000003649,695.932007,3691.60791
47204_processed.fif,post-stress,80,short,0,4331.248047,4334.208008,2.9599609999995664,2.3081050000000687,0.5522460000001956,695.932007,3691.60791
47204_processed.fif,post-stress,81,short,0,4338.47998,4341.439941,2.9599609999995664,2.299804999999651,0.5478509999993548,695.932007,3691.60791
47324_processed.fif,pre-stress,1,long,0,1008.432007,1011.176025,2.7440179999999827,2.0759890000000496,0.4439700000000357,989.323975,4335.87207
47324_processed.fif,pre-stress,2,long,0,1014.679993,1017.867981,3.1879880000000185,2.5239860000000363,,989.323975,4335.87207
47324_processed.fif,pre-stress,3,long,0,1021.364014,1024.44397,3.0799560000000383,2.4079590000000053,0.4439700000000357,989.323975,4335.87207
47324_processed.fif,pre-stress,4,long,0,1027.94397,1030.803955,2.8599850000000515,2.1960449999999128,0.5520019999999022,989.323975,4335.87207
47324_processed.fif,pre-stress,5,long,0,1034.303955,1037.16394,2.859984999999824,2.200072999999975,0.5520020000001296,989.323975,4335.87207
47324_processed.fif,pre-stress,6,long,1,1045.887939,1067.699951,21.812012000000095,1.6400149999999485,,989.323975,4335.87207
47324_processed.fif,pre-stress,7,long,0,1071.312012,1073.947998,2.6359860000000026,1.968016999999918,0.44396899999992456,989.323975,4335.87207
47324_processed.fif,pre-stress,8,long,0,1077.436035,1080.328003,2.8919680000001335,2.3159180000000106,0.5639650000000529,989.323975,4335.87207
47324_processed.fif,pre-stress,9,long,0,1083.939941,1086.484009,2.5440679999999247,1.8720710000000054,0.4479980000000978,989.323975,4335.87207
47324_processed.fif,pre-stress,10,long,0,1089.884033,1092.624023,2.7399900000000343,2.072022000000061,0.44006400000012036,989.323975,4335.87207
47324_processed.fif,pre-stress,11,long,1,1096.135986,1117.859985,21.72399900000005,1.4200439999999617,,989.323975,4335.87207
47324_processed.fif,pre-stress,12,long,0,1121.359985,1124.0,2.6400149999999485,2.0760499999998956,0.5480959999999868,989.323975,4335.87207
47324_processed.fif,pre-stress,13,long,0,1127.599976,1130.147949,2.5479729999999563,1.8720700000001216,0.4479980000000978,989.323975,4335.87207
47324_processed.fif,pre-stress,14,long,0,1133.647949,1136.936035,3.288086000000021,2.628052000000025,0.5600589999999102,989.323975,4335.87207
47324_processed.fif,pre-stress,15,long,0,1140.432007,1143.063965,2.6319579999999405,1.968016999999918,0.4400630000000092,989.323975,4335.87207
47324_processed.fif,pre-stress,16,long,1,1146.776001,1168.475952,21.699951000000056,1.4200439999999617,,989.323975,4335.87207
47324_processed.fif,pre-stress,17,long,0,1171.956055,1174.812012,2.8559569999999894,2.19189399999982,0.5520019999999022,989.323975,4335.87207
47324_processed.fif,pre-stress,18,long,0,1178.192017,1180.832031,2.6400139999998373,2.088011999999935,0.5560299999999643,989.323975,4335.87207
47324_processed.fif,pre-stress,19,long,1,1184.232056,1205.76001,21.52795399999991,1.3439939999998387,,989.323975,4335.87207
47324_processed.fif,pre-stress,20,long,0,1209.687988,1212.660034,2.9720460000000912,2.307984000000033,0.44799799999987044,989.323975,4335.87207
47324_processed.fif,pre-stress,21,long,0,1216.160034,1218.787964,2.627930000000106,2.072022000000061,0.5480959999999868,989.323975,4335.87207
47324_processed.fif,pre-stress,22,long,0,1222.303955,1224.932007,2.628052000000025,1.9680179999998018,0.5399169999998321,989.323975,4335.87207
47324_processed.fif,pre-stress,23,long,1,1228.767944,1250.592041,21.824097000000165,1.5280770000001667,,989.323975,4335.87207
47324_processed.fif,pre-stress,24,long,0,1254.07605,1257.251953,3.175903000000062,2.619995000000017,0.5400389999999788,989.323975,4335.87207
47324_processed.fif,pre-stress,25,long,0,1260.852051,1263.488037,2.6359860000000026,1.9759520000000066,0.5600590000001375,989.323975,4335.87207
47324_processed.fif,pre-stress,26,long,0,1267.411987,1270.151978,2.7399910000001455,2.072022000000061,0.5440679999999247,989.323975,4335.87207
47324_processed.fif,pre-stress,27,long,1,1273.640015,1295.468018,21.82800300000008,1.536010000000033,,989.323975,4335.87207
47324_processed.fif,pre-stress,28,long,0,1298.952026,1301.692017,2.7399910000001455,2.0759279999999762,0.5360109999999167,989.323975,4335.87207
47324_processed.fif,pre-stress,29,short,0,1338.55603,1341.180054,2.624023999999963,1.9680180000000291,0.5440679999999247,989.323975,4335.87207
47324_processed.fif,pre-stress,30,short,1,1345.02002,1351.904053,6.884033000000045,1.64391999999998,,989.323975,4335.87207
47324_processed.fif,pre-stress,31,short,0,1355.411987,1358.287964,2.875977000000148,2.192017000000078,0.5479740000000675,989.323975,4335.87207
47324_processed.fif,pre-stress,32,short,0,1361.784058,1364.635986,2.8519280000000435,2.18396000000007,0.4479980000000978,989.323975,4335.87207
47324_processed.fif,pre-stress,33,short,0,1368.140015,1371.228027,3.0880120000001625,2.4200439999999617,0.5600589999999102,989.323975,4335.87207
47324_processed.fif,pre-stress,34,short,1,1374.723999,1381.187988,6.463988999999856,1.4279790000000503,,989.323975,4335.87207
47324_processed.fif,pre-stress,35,short,0,1385.692017,1388.323975,2.6319579999999405,1.9719229999998333,0.43994099999986247,989.323975,4335.87207
47324_processed.fif,pre-stress,36,short,0,1391.947998,1394.484009,2.5360109999999167,1.9799809999999525,0.5560310000000754,989.323975,4335.87207
47324_processed.fif,pre-stress,37,short,1,1397.984009,1404.680054,6.696044999999913,1.4599610000000212,,989.323975,4335.87207
47324_processed.fif,pre-stress,38,short,0,1408.291992,1410.907959,2.615966999999955,2.067993000000115,0.6560060000001613,989.323975,4335.87207
47324_processed.fif,pre-stress,39,short,0,1414.524048,1417.359985,2.835937000000058,2.0759279999999762,0.4439700000000357,989.323975,4335.87207
47324_processed.fif,pre-stress,40,short,1,1420.864014,1427.767944,6.903929999999946,1.6400140000000647,,989.323975,4335.87207
47324_processed.fif,pre-stress,41,short,0,1431.267944,1433.995972,2.728027999999995,2.076050000000123,0.5479729999999563,989.323975,4335.87207
47324_processed.fif,pre-stress,42,short,0,1437.5,1440.144043,2.6440430000000106,1.9840090000000146,0.5520019999999022,989.323975,4335.87207
47324_processed.fif,pre-stress,43,short,0,1443.771973,1446.508057,2.736084000000119,2.080078000000185,0.5440680000001521,989.323975,4335.87207
47324_processed.fif,pre-stress,44,short,1,1450.011963,1456.800049,6.788086000000021,1.5319819999999709,,989.323975,4335.87207
47324_processed.fif,pre-stress,45,short,0,1460.307983,1462.947998,2.640015000000176,1.976075000000037,0.4520270000000437,989.323975,4335.87207
47324_processed.fif,pre-stress,46,short,0,1466.452026,1469.52002,3.0679939999999988,2.411988000000065,0.4439700000000357,989.323975,4335.87207
47324_processed.fif,pre-stress,47,short,0,1473.036011,1476.343994,3.3079830000001493,2.7480470000000423,0.5600589999999102,989.323975,4335.87207
47324_processed.fif,pre-stress,48,short,1,1479.848022,1486.83606,6.988038000000188,1.6439210000000912,,989.323975,4335.87207
47324_processed.fif,pre-stress,49,short,0,1490.343994,1493.07605,2.7320559999998295,2.0720219999998335,0.5360109999999167,989.323975,4335.87207
47324_processed.fif,pre-stress,50,short,0,1496.572021,1499.748047,3.1760260000000926,2.6119390000001204,0.5399170000000595,989.323975,4335.87207
47324_processed.fif,pre-stress,51,short,1,1503.807983,1510.583984,6.7760010000001785,1.4279790000000503,,989.323975,4335.87207
47324_processed.fif,pre-stress,52,short,0,1514.079956,1516.728027,2.6480710000000727,1.9600829999999405,0.4360349999999471,989.323975,4335.87207
47324_processed.fif,pre-stress,53,short,0,1520.232056,1523.199951,2.9678949999999986,2.2919919999999365,0.440063999999893,989.323975,4335.87207
47324_processed.fif,pre-stress,54,short,1,1526.823975,1533.723999,6.90002400000003,1.6440430000000106,,989.323975,4335.87207
47324_processed.fif,pre-stress,55,short,0,1537.228027,1539.880005,2.651977999999872,2.079955999999811,0.5479729999999563,989.323975,4335.87207
47324_processed.fif,pre-stress,56,short,0,1543.375977,1546.23999,2.8640130000001136,2.2039790000001176,0.5559080000000449,989.323975,4335.87207
47324_processed.fif,pre-stress,57,short,1,1549.735962,1556.411987,6.6760249999999814,1.544067000000041,,989.323975,4335.87207
47324_processed.fif,pre-stress,58,short,0,1560.024048,1562.660034,2.6359860000000026,1.9678949999999986,0.43994100000008984,989.323975,4335.87207
47324_processed.fif,pre-stress,59,short,0,1566.171997,1569.036011,2.8640139999999974,2.29602100000011,0.5440679999999247,989.323975,4335.87207
47324_processed.fif,pre-stress,60,short,1,1572.640015,1579.411987,6.771972000000005,1.536010000000033,,989.323975,4335.87207
47324_processed.fif,pre-stress,61,short,0,1582.900024,1585.536011,2.6359869999998864,1.9719239999999445,0.44396899999992456,989.323975,4335.87207
47324_processed.fif,pre-stress,62,short,0,1589.151978,1591.57605,2.4240719999997964,1.8800039999998717,0.5520019999999022,989.323975,4335.87207
47324_processed.fif,pre-stress,63,short,1,1595.180054,1601.956055,6.7760010000001785,1.5399170000000595,,989.323975,4335.87207
47324_processed.fif,pre-stress,64,short,0,1605.468018,1608.212036,2.744017999999869,2.0679929999998876,0.432006999999885,989.323975,4335.87207
47324_processed.fif,pre-stress,65,short,1,1611.712036,1618.416016,6.703980000000001,1.4599610000000212,,989.323975,4335.87207
47324_processed.fif,pre-stress,66,short,0,1621.920044,1624.560059,2.6400149999999485,1.9799800000000687,0.45202599999993254,989.323975,4335.87207
47324_processed.fif,pre-stress,67,short,0,1628.067993,1630.708008,2.640015000000176,2.0799560000000383,0.5399169999998321,989.323975,4335.87207
47324_processed.fif,pre-stress,68,short,1,1634.312012,1641.083984,6.771972000000005,1.4200439999999617,,989.323975,4335.87207
47324_processed.fif,post-stress,1,short,0,4356.835938,4359.383789,2.5478510000002643,1.9799800000000687,0.5600590000003649,989.323975,4335.87207
47324_processed.fif,post-stress,2,short,0,4362.89209,4365.428223,2.5361329999996087,1.8676759999998467,0.5478519999996934,989.323975,4335.87207
47324_processed.fif,post-stress,3,short,0,4368.815918,4371.359863,2.5439449999994395,1.8642579999996087,0.4443359999995664,989.323975,4335.87207
47324_processed.fif,post-stress,4,short,1,4374.751953,4381.63623,6.884277000000111,1.6362310000004072,,989.323975,4335.87207
47324_processed.fif,post-stress,5,short,0,4385.120117,4387.463867,2.34375,1.8237309999994977,0.39990299999954004,989.323975,4335.87207
47324_processed.fif,post-stress,6,short,0,4391.516113,4394.147949,2.631836000000476,1.9677740000006452,0.5517580000005182,989.323975,4335.87207
47324_processed.fif,post-stress,7,short,1,4397.540039,4405.408203,7.868163999999524,2.5161129999996774,,989.323975,4335.87207
47324_processed.fif,post-stress,8,short,0,4408.912109,4411.547852,2.6357429999998203,2.0717780000004495,0.5400390000004336,989.323975,4335.87207
47324_processed.fif,post-stress,9,short,0,4415.043945,4417.576172,2.5322269999996934,1.968261999999413,0.5522460000001956,989.323975,4335.87207
